A_X[mg]	A_Y[mg]	A_Z[mg]	G_X[dps]	G_Y[dps]	G_Z[dps]	
55.205002	76.920998	1128.500000	-1.452500	-4.300625	6.505625
47.885002	68.014999	1114.958008	-1.452500	-4.300625	4.357500
47.885002	41.174999	1127.645996	-0.848750	-4.427500	4.357500
62.341999	41.174999	1127.645996	-0.096250	-1.181250	5.057500
44.774002	29.097000	1114.469971	1.929375	-0.721875	5.403125
44.042000	47.091999	1103.795044	4.685625	-0.905625	3.535000
14.640000	-118.278999	1153.327026	11.760000	2.008125	4.812500
50.202999	-396.988007	1129.049072	18.462500	-7.118125	6.943125
12.383000	-432.734009	1121.973022	30.038750	-6.912500	15.448125
25.375999	-421.388000	1063.291016	33.976250	17.066875	24.281250
-27.877001	-255.468002	1063.108032	39.466873	23.016874	35.945000
-59.535999	-111.203003	1096.170044	33.525623	3.946250	47.578125
45.750000	-129.563995	1135.026978	14.376250	-8.365000	58.769375
170.434006	-28.365000	1145.031006	-2.730000	-21.975624	63.258125
246.806000	20.679001	1185.412964	-9.161250	-20.654375	61.280624
287.675995	190.930008	1190.781006	-31.346874	-17.141251	54.429375
257.420013	341.112000	1107.881958	-34.956249	-3.342500	45.101875
219.173004	331.778992	1105.686035	-32.493126	10.255000	35.625626
191.113007	291.763000	1112.945068	-19.792500	19.521250	19.569374
104.737000	357.643005	1020.408020	-24.342501	22.194374	15.207500
145.363007	264.739990	1225.307007	-21.870625	0.450625	16.533125
222.040009	226.859009	1114.958008	2.301250	-7.730625	23.069374
188.001999	357.643005	1125.937988	-4.060000	-8.645000	35.700001
189.466003	226.615005	1142.041992	3.451875	-25.243750	34.995625
260.774994	337.696014	1085.860962	-2.765000	-21.686874	34.457500
200.811996	306.463989	1100.927979	-13.251875	-25.690001	34.098751
292.067993	166.408005	1118.678955	-14.245000	-22.570625	24.268126
232.288010	210.206009	1108.308960	-13.020000	0.061250	10.727500
185.074005	114.070000	1111.847046	-3.053750	5.783750	4.313750
205.387009	147.132004	1070.489014	1.211875	10.154375	-5.595625
110.166000	76.555000	1090.375000	7.271250	8.798125	-9.944375
201.788010	134.565994	1147.410034	20.020000	-8.942500	-13.956250
162.565002	171.348999	1073.539062	13.055000	3.850000	-8.369375
148.352005	135.175995	1112.578979	4.571875	10.530625	-4.431875
112.728004	92.780998	1104.526978	-2.104375	8.238125	-6.558125
115.167999	94.306000	1119.593994	-2.511250	5.096875	-10.386250
119.133003	114.009003	1119.105957	-3.570000	0.678125	-11.961250
100.405998	110.898003	1133.624023	-5.197500	1.133125	-7.153125
46.726002	5.429000	1114.592041	1.745625	-1.513750	4.602500
38.125000	11.651000	1128.622070	-0.105000	-2.471875	1.216250
23.424000	-12.383000	1113.859985	3.268125	2.209375	0.783125
21.594000	10.187000	1113.738037	2.078125	3.058125	1.155000
14.945000	4.453000	1109.833984	2.550625	2.244375	0.599375
2.867000	-52.764999	1125.083984	4.851875	5.718125	-4.598125
0.122000	-235.154999	1130.635010	12.661250	-0.004375	-13.531875
-20.130001	-416.080994	1147.776001	20.251875	-2.458750	-12.040000
-116.510002	-454.755005	1113.128052	19.595625	16.786875	-6.195000
-96.929001	-452.619995	1082.018066	27.930000	20.133751	-0.892500
-63.867001	-382.897003	1055.483032	35.796249	3.666250	10.631250
-35.380001	-266.143005	1057.251953	41.431252	1.168125	25.991875
-20.862000	-121.084999	1101.660034	31.718750	0.210000	32.466873
71.980003	-87.047005	1121.973022	17.793125	-12.801250	35.752499
112.667000	132.369995	1152.534058	8.618750	-16.218124	40.201874
93.818001	116.510002	1142.591064	-0.503125	3.180625	35.892502
294.873993	124.135002	1165.526978	-1.522500	-3.136875	31.469376
104.554001	287.737000	1122.827026	-5.827500	3.233125	24.661875
100.040001	415.471008	1145.640991	-27.488125	14.721875	29.666876
178.119995	291.458008	1217.864990	-37.966251	14.315000	41.523125
165.859009	332.632996	1141.920044	-48.790001	18.620001	39.497501
30.683001	240.584000	1173.274048	-44.380001	26.298124	38.535000
136.152008	277.610992	1063.962036	-25.943750	13.396250	40.971874
-42.151001	217.281998	1123.010010	-13.470625	12.136250	47.753124
75.701004	308.294006	1196.576050	-1.920625	-11.278750	29.920626
79.361000	267.972992	1079.516968	0.310625	-21.271250	25.055626
52.764999	256.382996	1082.445068	0.105000	-12.495000	23.891874
-38.674000	168.421005	1091.838989	-8.728125	-3.963750	3.867500
-59.475002	100.345001	1162.233032	-5.630625	-12.468750	0.096250
4.758000	95.526001	1242.875000	12.306875	-27.387501	-1.010625
122.305000	118.401001	1153.571045	19.573750	-23.091249	-19.744375
61.610001	177.143997	1135.576050	24.298750	-1.841875	-18.108126
55.205002	266.082001	1158.817017	16.187500	16.734375	-13.628125
9.760000	249.001999	1078.602051	5.674375	20.615000	-11.703125
-35.014000	163.053009	1070.123047	-2.782500	21.017500	-3.101875
-21.472000	141.703003	1044.869019	2.804375	9.896250	2.200625
-36.844002	58.865002	1047.919067	-1.946875	13.085625	2.485000
-53.313999	78.140999	1095.560059	3.014375	-0.148750	4.755625
162.748001	5.246000	1144.359985	-0.236250	-1.618750	5.101250
147.619995	23.241001	1123.315063	-0.415625	-1.815625	3.456250
141.581009	29.707001	1118.008057	-1.098125	1.461250	5.061875
119.864998	1.769000	1102.758057	-3.342500	3.325000	7.118125
93.513000	12.078000	1104.953979	-4.116875	0.345625	7.599375
103.700005	-92.292999	1114.958008	0.984375	0.218750	4.720625
133.223999	-192.820999	1116.300049	8.010625	1.120000	2.349375
77.897003	-318.175995	1114.713989	10.071250	3.272500	3.998750
80.459000	-389.119019	1069.573975	10.784375	13.715625	9.751875
101.077003	-375.515991	1077.321045	13.230000	11.173750	20.680626
144.936005	-408.089996	1075.796021	7.695625	4.418750	39.974377
209.108002	-355.203003	1135.088013	6.995625	3.543750	44.134998
61.915001	-183.731995	1079.029053	-4.326875	14.831250	49.595001
183.488007	-209.169006	1102.818970	-20.212500	16.616249	50.417500
82.532997	-129.686005	1107.333008	-27.326250	-8.942500	54.823124
95.038002	-152.317001	1144.055054	-16.764999	-35.840000	56.984375
265.593994	-26.352001	1104.405029	-6.247500	-37.021252	42.393749
289.445007	134.139008	1071.891968	-3.469375	-22.421875	38.342499
339.830994	166.529999	1180.349976	7.848750	-5.083750	23.821875
275.720001	148.108002	1159.975952	12.481875	8.881250	23.655624
322.201996	254.736008	1307.779053	22.308125	14.441875	37.073750
291.701996	310.307007	1225.001953	14.144375	4.392500	33.888748
229.604004	331.291016	1199.687012	7.205625	2.432500	37.931252
236.985001	284.381989	1156.010986	11.151875	-2.891875	35.713123
246.867004	322.140991	1036.695068	9.384375	-9.695000	26.232500
192.210999	317.932007	1039.744995	-0.945000	-8.793750	16.699375
201.971008	307.744995	1077.198975	-2.629375	-3.793125	3.298750
119.926003	282.490997	1057.739990	1.220625	-1.015000	-5.101250
105.408005	243.085007	1064.999023	-1.413125	4.383750	-1.260000
70.272003	156.587006	1078.968018	3.460625	4.773125	-7.708750
81.984001	129.014999	1088.057007	5.560625	1.015000	-9.821875
113.216003	92.780998	1125.876953	3.298750	-8.400000	-11.908750
119.011002	59.292000	1121.546021	2.275000	2.686250	-9.992500
122.915001	46.542999	1118.251953	0.577500	2.782500	-8.435000
142.190994	14.762000	1118.495972	-0.026250	-4.309375	-7.700000
139.080002	47.458000	1116.787964	0.201250	0.450625	-4.611250
154.330002	16.836000	1098.854004	-1.583750	-1.111250	-4.055625
149.938004	34.403999	1103.062988	-2.712500	-3.329375	-5.757500
268.765991	-45.567001	1121.667969	4.431875	-2.598750	8.303750
250.100006	-22.264999	1100.623047	4.637500	1.273125	8.990625
259.311005	-48.861000	1093.791016	4.318125	0.157500	11.668125
231.373001	-36.722000	1088.605957	4.318125	0.157500	12.136250
231.373001	18.361000	1079.029053	7.796250	-1.229375	12.136250
230.214005	18.361000	1079.029053	8.413125	-0.196875	9.699375
214.354004	-152.378006	1121.057983	12.337500	-2.283750	14.043750
310.916992	-370.391998	1100.013062	26.004999	-19.254375	10.710000
299.205017	-405.040009	1001.619995	38.101875	-7.721875	17.128124
213.682999	-355.813019	974.718994	31.285625	23.738750	27.247499
187.209000	-279.623993	1018.822021	13.912500	24.508751	27.728750
201.421997	-297.679993	1117.825073	6.037500	5.630625	37.458752
324.398010	-229.421005	1083.604004	-5.302500	-1.964375	28.113750
224.419006	-79.422005	1124.839966	-8.203125	-11.974375	26.486250
469.212006	-78.080002	1116.727051	-13.120625	-25.711876	30.327499
423.339996	29.280001	1154.912964	-3.180625	-24.714375	38.386250
457.438995	111.325005	1128.805054	17.018749	-26.775000	53.305000
450.851013	259.554993	1057.801025	1.990625	-9.957500	50.500626
354.044006	341.295013	1063.656982	-8.728125	-2.677500	48.877499
490.928009	360.815002	1108.858032	-10.066875	-15.745625	54.810001
440.908020	220.454010	1096.230957	-9.380000	-15.194375	60.921875
559.309021	221.186005	1091.229004	-1.815625	-14.249375	40.634998
494.466003	220.576004	1078.906982	14.818125	2.795625	19.783751
461.770020	315.919006	1086.227051	21.726250	14.949375	15.929375
319.518005	267.302002	1088.118042	21.844376	18.370625	22.649376
352.580017	261.873016	1085.556030	22.588125	23.979376	28.643126
283.588989	218.563004	1041.331055	4.326875	23.358126	8.960000
205.203995	150.487000	1041.514038	-4.497500	9.782500	5.324375
257.359009	124.745003	1056.885986	-0.503125	-12.460000	3.053750
260.531006	45.872002	1090.436035	2.913750	-7.949375	5.018125
343.369019	45.628002	1094.523071	11.856250	-2.471875	1.557500
309.269989	46.848000	1082.811035	14.818125	0.336875	1.968750
336.842010	98.881004	1060.607056	9.699375	4.169375	0.113750
274.865997	50.630001	1057.374023	3.749375	11.746875	0.354375
292.617004	79.788002	1048.529053	2.270625	5.910625	-2.489375
248.941010	53.008999	1047.614014	-3.386250	0.293125	-3.482500
270.535004	40.931000	1074.088013	-5.359375	-0.013125	-0.560000
214.903000	-18.910000	1110.139038	-6.820625	-2.769375	1.666875
-5.978000	-94.672005	1041.880005	-19.722500	12.210625	-12.162500
-33.000999	-162.565002	1101.294067	-14.437500	8.264375	-8.719375
-25.071001	-63.135002	1071.160034	-4.900000	2.751875	-4.130000
9.943000	-98.087997	1050.786011	2.782500	3.206875	0.070000
-7.198000	-92.903000	1073.661011	8.015000	0.516250	5.678750
2.867000	-287.127014	1128.072998	13.142500	-2.716875	8.990625
-19.459000	-255.346008	1091.777954	18.340000	2.336250	5.481875
44.042000	-500.139008	1109.773071	10.508750	9.576875	9.471875
-27.145000	-433.527008	1093.729980	12.398750	4.803750	15.001875
-2.379000	-379.725006	963.007019	17.325001	11.659375	17.250626
19.580999	-540.765015	1050.359009	15.430625	16.708124	32.401249
58.255001	-324.886017	1067.011963	18.821251	-8.290625	43.308125
47.153000	-342.942017	1054.750977	11.681250	3.377500	55.055000
24.827000	-179.889008	1221.586060	-14.113750	-1.798125	60.361874
282.368988	-235.764999	1163.331055	-29.561874	-34.951874	74.046875
111.020004	-3.782000	1268.556030	-37.493752	-59.626877	81.904373
304.817017	156.709000	1185.962036	-36.618752	-50.798126	51.126251
451.583008	48.678001	1222.013062	-12.849375	-25.077499	76.387497
258.457001	234.484009	1238.300049	20.304375	9.205000	85.557503
127.185005	289.079010	1208.654053	6.059375	25.725000	86.183128
288.102997	255.834000	1359.446045	-13.610625	15.019375	81.948128
246.135010	158.600006	1188.280029	-10.683750	16.454374	74.086250
154.695999	209.656998	1126.182007	-6.457500	18.825624	75.661247
167.994003	128.466003	1202.432007	12.678750	-8.421875	57.531250
172.081009	283.040009	1075.917969	28.800625	-3.163125	26.481874
51.056999	322.506989	1045.661987	35.481251	-2.808750	24.294374
48.190002	347.882996	1053.409058	12.687500	-5.709375	34.982498
41.785000	369.233002	985.088989	0.201250	-6.746250	19.827499
-90.341003	198.494003	1052.555054	-11.821250	-11.200000	11.891250
50.386002	263.032013	1100.806030	-3.412500	-28.546875	1.395625
60.817001	162.686996	1078.052979	4.624375	-30.730000	-12.451250
76.982002	243.024002	1112.578979	8.229375	-23.458750	-14.533750
87.047005	177.388000	1163.087036	10.736250	-23.764999	-12.578125
137.311005	203.496002	1174.859985	12.630625	2.240000	-0.266875
76.494003	96.136002	1161.683960	8.019375	9.725625	10.631250
105.042000	48.922001	1127.645996	2.480625	11.707500	11.204375
83.021004	66.368004	1113.738037	0.735000	13.116250	-0.503125
81.129997	32.208000	1108.979980	-2.926875	11.423125	-3.167500
104.493004	-4.880000	1120.936035	3.101875	0.253750	7.778750
79.848999	29.951000	1120.082031	0.958125	1.251250	5.053125
115.107002	-10.919000	1112.945068	-0.573125	-1.246875	5.709375
72.163002	7.625000	1100.989014	0.975625	1.299375	5.232500
72.101997	21.960001	1102.026001	1.990625	1.596875	7.651875
91.439003	-21.289000	1129.719971	3.119375	-3.766875	9.275000
97.417000	-239.852005	1160.829956	11.646250	-4.939375	8.526875
117.913002	-374.967010	1125.816040	13.317500	-0.813750	11.361875
173.910995	-473.908997	1102.331055	7.896875	2.594375	12.740000
115.473000	-417.423004	1073.966064	4.046875	-1.373750	8.111250
207.643997	-276.696014	1063.535034	6.365625	-10.399375	10.657500
163.602005	-199.958008	1083.909058	10.298750	-14.791875	29.876875
201.361008	-63.074001	1102.818970	15.680000	-29.833124	32.733749
203.007996	35.196999	1124.169067	19.486250	-33.066250	39.471249
235.094009	97.112000	1159.915039	11.598125	-14.958125	42.800625
245.951996	209.046997	1129.232056	8.102500	11.746875	38.937500
233.141998	203.496002	1149.545044	10.399375	29.758751	47.411877
209.656998	246.684006	1115.446045	14.573125	33.131874	44.782501
115.290001	229.238007	1061.704956	8.067500	34.768124	53.878124
171.348999	282.247009	1121.790039	-1.509375	17.482500	57.531250
168.725998	331.412994	1084.275024	0.721875	1.356250	37.441250
123.098000	368.013000	1099.829956	-1.408750	3.596250	32.200001
113.033005	370.636017	1122.704956	-2.353750	-0.630000	26.009375
62.952000	303.657990	1122.765991	-2.576875	-2.533125	14.866250
67.892998	278.709015	1102.514038	-7.673750	4.178125	9.743125
73.504997	248.514008	1083.482056	-1.798125	-4.528125	5.967500
55.144001	197.639999	1101.843018	1.190000	-7.161875	3.263750
56.852001	184.098007	1065.791992	5.241250	-1.631875	-2.607500
4.575000	92.720001	1113.372070	5.621875	2.550625	-1.785000
88.266998	122.366005	1138.808960	11.182500	-7.091875	-3.775625
82.044998	139.568008	1103.124023	9.870000	-14.266875	-4.886875
140.544006	147.803009	1134.722046	7.319375	-9.603125	-6.238750
102.297005	120.231003	1147.044067	3.237500	-4.445000	-5.648125
151.707001	112.423004	1139.785034	1.741250	-2.681875	-0.253750
110.105003	58.865002	1116.604980	0.476875	-2.143750	-2.095625
141.154007	77.287003	1129.719971	0.511875	2.187500	-3.395000
85.583000	52.643002	1120.753052	1.413125	0.109375	-3.215625
121.572998	59.841000	1141.859009	3.644375	-0.013125	0.328125
85.400002	-146.888000	1116.971069	-8.041250	1.828750	-11.646250
80.336998	-112.056999	1125.510986	2.896250	-10.333750	-8.106875
80.641998	-77.530998	1118.312988	11.274375	-7.783125	-3.202500
50.386002	-27.511000	1134.599976	11.274375	-4.011875	0.555625
60.084999	-71.736000	1143.322998	13.466250	-4.011875	0.555625
60.084999	-71.736000	1143.322998	10.823750	-10.815000	5.455625
83.997002	-83.387001	1147.348999	10.675000	-3.465000	6.982500
183.671005	-344.588989	1218.353027	15.386875	-8.386875	-3.810625
172.324997	-475.494995	1068.659058	16.668751	0.643125	-5.241250
62.464001	-428.220001	979.965027	11.340000	29.483126	5.971875
136.762009	-577.487000	1013.637024	12.643750	29.946875	9.848125
-3.294000	-329.278015	1012.966003	15.623125	7.520625	20.558125
108.153000	-312.808014	989.846985	9.616250	-1.697500	16.883125
135.054001	-246.135010	1035.047974	8.898750	-11.781875	48.203751
-17.385000	15.128000	1146.617065	-17.014376	-22.662500	37.506874
204.167007	-134.261002	1149.484009	-18.615625	-36.889999	34.111874
515.815979	-244.732010	1237.812012	-9.406250	-39.230625	54.884377
154.085999	52.643002	1213.717041	-7.070000	0.581875	31.526251
272.121002	6.588000	1126.609009	4.777500	3.583125	51.152500
349.286011	59.353001	1164.916992	11.681250	1.618750	69.435623
197.212997	80.336998	1163.148071	11.515000	15.588125	64.364998
284.687012	141.276001	1189.622070	-10.723125	17.233126	60.025002
221.917999	92.720001	1092.144043	-31.241875	21.774376	56.866249
111.020004	75.517998	1155.339966	-39.611252	34.466251	56.980000
161.833008	78.873001	1234.151978	-16.025625	17.963751	35.314999
43.126999	201.544006	1114.286987	9.073750	20.488125	44.703751
42.944000	299.449005	1180.166992	20.855625	30.848125	54.796875
-9.821000	299.265991	1152.838989	26.635000	9.030000	50.575001
7.076000	413.885010	1143.445068	29.570625	-13.720000	50.710625
-19.337000	346.053009	1005.768005	21.113750	-14.245000	50.855000
-30.316999	346.723999	1039.256958	18.322500	1.347500	44.064999
-25.681000	304.450989	1045.234985	21.555626	-10.443125	27.785625
16.226000	187.453003	1033.401001	20.225624	-12.451250	13.689375
-7.747000	175.375000	1101.721069	17.911249	-19.591249	1.802500
27.389000	104.981003	1141.859009	17.456249	-23.695000	3.088750
104.431999	137.371994	1125.450073	17.898125	-21.665001	-0.962500
10.492001	110.348999	1178.214966	14.835625	-16.384375	-1.566250
76.189003	129.259003	1174.738037	15.583750	-11.974375	0.437500
-10.675000	44.529999	1137.954956	-16.568125	-18.711876	-33.306873
92.903000	5.551000	1107.760010	-26.061874	-23.874374	-24.981251
68.869003	35.868000	1080.980957	-33.289375	-31.049376	-16.764999
154.268997	54.473000	1123.131958	-16.406250	-27.387501	-9.397500
210.999008	-58.194000	1032.669067	20.181875	5.726875	-13.811875
174.033005	-3.721000	1083.909058	74.593750	30.747499	-2.279375
4.636000	80.459000	1180.655029	63.695625	18.427500	-10.167500
153.048996	-227.774002	1092.448975	33.915001	-18.143126	17.854376
168.481995	-94.855003	1126.853027	15.303750	-30.686251	24.981251
221.369003	-191.540009	1042.551025	17.189375	-1.369375	16.786875
125.538002	-58.987000	1070.427979	27.689375	7.087500	7.113750
297.924011	-64.111000	1069.329956	15.277500	-6.391875	9.065000
287.981018	63.135002	1087.812988	3.338125	-9.843750	9.104375
435.356995	82.167000	1093.302979	15.815625	9.126250	16.576876
355.386017	239.669006	1143.201050	20.754999	3.049375	40.446877
316.528992	323.239014	1134.051025	5.775000	-8.448125	45.771252
356.179016	325.130005	1167.906006	-10.963750	-9.852500	62.020000
306.097992	400.037994	1122.156006	-11.659375	-2.541875	58.441250
192.210999	268.095001	1194.014038	-28.962500	-19.941250	43.767502
459.269012	405.649994	1145.092041	-28.371876	-8.763125	32.322498
426.024017	383.019012	1191.452026	-6.912500	9.423750	13.593125
379.541992	602.741028	1135.636963	22.907499	22.518126	4.987500
148.352005	519.963989	978.440002	5.057500	52.915627	6.304375
92.537003	563.518005	1040.171997	-14.997500	66.150002	18.484375
85.460999	545.950012	854.000000	-8.710625	41.667500	15.736875
94.855003	570.044983	947.817993	-0.498750	23.931250	16.082500
217.038010	632.814026	1082.018066	15.933750	-6.330625	11.751250
157.501999	499.407013	921.954041	16.428125	1.071875	11.073125
146.216995	477.691010	1030.167969	7.756875	22.338751	7.105000
52.704002	431.514008	991.554993	11.375000	20.890625	2.139375
50.751999	329.583008	994.848999	8.522500	15.911875	0.861875
27.145000	252.906006	1013.759033	6.199375	8.106875	-2.795625
64.721001	261.140991	1081.713013	1.933750	3.670625	-1.684375
36.904999	223.931000	1078.479980	0.577500	-3.088750	-6.221250
72.285004	263.825012	1115.385010	0.608125	-4.948125	-7.087500
52.582001	238.936996	1102.453003	3.710000	-7.673750	-2.673125
111.996002	270.351990	1135.453979	4.974375	-4.326875	-1.846250
55.570999	278.587006	1108.675049	5.363750	-2.397500	-1.583750
69.295998	124.195999	1101.781982	-1.596875	-2.213750	-2.795625
91.682999	145.485001	1111.359009	-1.645000	-3.574375	-0.923125
50.691002	113.094002	1100.623047	0.223125	-0.100625	-2.135000
62.830002	146.826996	1101.294067	2.003750	-7.415625	1.360625
79.300003	55.632000	1118.374023	-0.573125	-7.105000	5.875625
91.377998	-24.521999	1140.516968	8.172500	-0.568750	-2.996875
94.367004	-125.721001	1171.200073	18.720625	-4.440625	-5.184375
182.634003	-324.337006	1252.756958	17.128124	1.833125	-5.460000
158.660995	-354.898010	1187.060059	8.671250	20.028749	-8.382500
161.833008	-350.933014	1121.667969	7.743750	23.638124	-7.437500
45.201000	-229.848007	1121.057983	14.420000	7.756875	-4.081875
220.880997	-108.945999	1197.917969	6.728750	-11.659375	8.443750
248.391998	-65.636002	1141.614990	5.302500	-28.035000	33.376877
221.247009	205.509003	1093.364014	12.267500	-16.992500	30.379999
221.430008	345.138000	1130.513062	7.214375	-0.140000	48.509998
294.630005	369.598999	1120.386963	3.325000	6.234375	75.967499
125.172005	448.227997	1056.764038	1.338750	16.874374	94.097504
230.945999	399.916016	1105.930054	-1.111250	19.670000	108.845627
215.330002	359.838989	1063.656982	3.250625	19.267500	93.261871
183.731995	427.304993	1075.796021	8.071875	24.259375	93.703751
301.766998	413.335999	1101.416016	20.562500	7.463750	87.298752
177.022003	443.347992	1073.051025	17.972500	18.217501	82.783752
224.602005	450.363007	1092.692993	21.157499	10.915625	76.181877
180.742996	448.106018	1037.549072	17.066875	-1.592500	55.628124
233.691010	498.431000	1043.161011	7.813750	11.274375	36.592499
222.466995	451.399994	1049.139038	6.155625	10.570000	20.098749
97.478004	458.415009	1008.268982	6.610625	12.928125	9.931250
143.472000	479.154999	1017.663025	8.964375	6.728750	4.353125
115.595001	442.067017	1038.769043	19.140625	-1.435000	-2.353750
121.695000	480.375000	981.429016	22.268749	-4.003125	-1.404375
109.617004	476.044006	983.991028	18.423124	-2.712500	-6.076875
118.156998	474.335999	999.790039	2.607500	3.657500	-4.703125
122.549004	397.110016	1050.237061	-3.097500	-3.893750	1.019375
139.445999	352.824005	1049.810059	-0.166250	-5.263125	-2.183125
87.901001	341.416992	1066.524048	-0.078750	-2.432500	-3.333750
84.180000	292.067993	1099.952026	3.539375	-0.420000	0.096250
104.371002	319.884003	1080.553955	6.090000	-3.749375	-1.461250
91.012001	300.973999	1105.503052	3.556875	-4.698750	-0.056875
152.072998	54.595001	1148.751953	8.295000	2.900625	13.750625
134.444000	-36.478001	1145.092041	9.314375	11.576250	14.061250
103.700005	-169.153000	1112.518066	17.841249	14.507500	16.703751
126.331001	-141.641998	1042.795044	18.851875	10.132500	20.584375
72.163002	-161.893997	1013.454041	16.270624	10.574375	32.633125
185.013000	-224.723999	1115.506958	26.875626	0.354375	40.529999
97.173004	-107.177002	1098.854004	21.371876	-13.409375	28.472500
246.745010	-167.139999	1120.509033	14.748125	-13.720000	34.733124
159.637009	-17.995001	1120.082031	13.313125	-3.237500	26.254375
145.790009	69.784004	1188.584961	-2.563750	0.595000	27.081249
335.317017	100.405998	1127.890015	-19.665625	-4.033750	34.146873
269.619995	259.311005	1157.780029	1.281875	-27.055000	45.657501
408.578003	354.959015	1208.348999	1.281875	-31.132500	48.925625
346.846008	434.686005	1109.285034	7.739375	-31.132500	48.925625
346.846008	434.686005	1109.285034	5.862500	-9.957500	52.447498
396.195007	436.272003	1237.506958	6.168750	1.395625	77.266876
485.804016	463.600006	1127.280029	-9.673125	18.676874	60.217499
337.390991	517.950989	1073.416992	-26.022499	31.018749	56.424374
395.524017	456.890015	1108.675049	-7.472500	16.655624	48.317501
301.705994	408.700012	1044.442017	15.067500	14.507500	29.172501
292.373016	473.481995	976.549011	12.613125	23.493750	37.974998
356.789001	445.117004	973.804016	11.655000	19.565001	25.458124
180.132996	448.899017	950.075012	7.586250	22.080626	17.438749
171.471008	466.406006	985.455017	8.312500	9.445625	11.624375
93.940002	399.794006	1030.046021	13.251875	-2.778125	5.901875
137.005997	390.217010	1069.756958	17.495625	0.770000	7.262500
130.356995	331.108002	1060.484985	19.411875	2.021250	7.096250
192.882004	291.640991	1080.370972	16.563749	4.344375	5.241250
145.057999	296.399017	1046.150024	5.849375	-0.201250	1.793750
166.225006	304.329010	1065.364990	1.417500	1.833125	1.758750
159.027008	287.066010	1085.739014	1.715000	0.052500	0.472500
163.906998	272.425995	1077.198975	1.719375	1.098125	1.513750
162.016006	247.477005	1086.471069	1.653750	2.712500	0.201250
163.846008	241.132996	1081.286011	1.264375	3.150000	-1.448125
144.936005	236.802002	1098.609985	1.951250	1.872500	-0.577500
161.162003	257.725006	1097.511963	4.641875	1.220625	-1.640625
147.619995	265.289001	1088.545044	5.709375	0.188125	0.367500
165.554001	252.723007	1061.338989	5.726875	0.875000	-0.516250
101.565002	-179.401001	1109.773071	4.086250	-2.756250	9.625000
73.993004	-115.290001	1111.541992	9.585625	-6.925625	8.325625
109.495003	-158.294998	1102.575073	6.365625	-5.350625	6.317500
91.256004	-151.218994	1082.750000	5.884375	-3.193750	5.293750
89.181999	-209.656998	1070.123047	7.091875	-7.157500	6.588750
127.673004	-386.191010	1139.419067	12.989375	-9.305625	4.646250
113.216003	-547.475037	1069.756958	21.975624	4.716250	7.660625
209.656998	-670.634033	1081.164062	23.375626	17.066875	21.420000
166.957001	-573.949036	1107.638062	27.991249	9.572500	34.794376
159.759003	-513.619995	971.303040	13.702500	-5.166875	47.455624
226.981003	-377.589996	985.393982	11.694375	-15.238125	52.696877
167.811005	-228.079010	1017.723999	5.433750	-21.354376	58.581249
347.028992	-187.087006	1043.709961	-1.054375	-39.615623	65.196251
407.601990	-63.074001	985.820984	22.658125	-18.348749	61.901875
295.118011	77.225998	1070.610962	52.268124	40.424999	63.721874
252.113007	163.053009	1194.624023	39.410000	49.481251	76.930000
205.203995	300.364014	1120.630981	18.165001	13.601875	80.666252
149.266998	269.985992	1220.915039	27.396250	-7.091875	85.330002
138.042999	241.132996	1044.625000	29.128750	-11.173750	60.353127
178.546997	285.480011	1167.296021	-3.600625	-0.332500	39.672501
198.311005	270.962006	1144.177002	-12.201875	6.619375	19.840626
104.431999	260.165009	1081.651978	-14.354375	18.895624	3.093125
49.593002	274.134003	1058.655029	-23.808750	18.795000	-19.075001
36.722000	281.759003	1197.430054	-25.506250	19.241249	-30.226875
-42.212002	359.778015	1266.055054	-22.330000	27.523125	-18.440624
-83.509003	268.156006	1214.388062	0.398125	18.073126	-3.508750
-48.739002	271.023010	1194.380005	22.071875	11.536875	2.563750
-49.288002	267.912018	1103.245972	23.288124	10.132500	10.237500
-30.195000	179.522995	1084.702026	13.483750	9.384375	10.574375
-45.628002	168.908997	1081.651978	11.340000	4.466875	-1.080625
-29.158001	76.127998	1085.006958	4.895625	-0.739375	-2.121875
1.220000	82.411003	1108.187012	1.225000	-9.559375	-10.819375
-4.697000	47.458000	1112.701050	-2.135000	-7.122500	-7.183750
34.709000	39.101002	1132.343018	-0.984375	-4.641875	-3.911250
-7.503000	26.291000	1128.865967	2.747500	-3.294375	-5.158125
4.026000	44.591000	1135.270996	6.558125	-1.120000	-1.058750
-8.723001	52.399002	1119.838013	6.505625	2.143750	-0.774375
-23.790001	57.157001	1148.508057	4.405625	-0.048125	-0.516250
91.927002	-74.542000	1107.150024	2.590000	6.715625	7.603750
95.831001	-97.294998	1122.400024	2.690625	0.214375	4.230625
85.095001	-112.484001	1098.671021	0.013125	2.690625	1.802500
53.924000	-176.900009	1110.443970	1.557500	3.473750	1.540000
54.290001	-252.783997	1113.067017	2.716875	-0.306250	5.858125
45.323002	-282.429993	1127.401978	3.517500	4.567500	8.588125
38.368999	-485.682007	1230.065063	3.145625	2.585625	13.247500
77.653000	-585.294983	1266.055054	9.975000	10.460625	12.193125
41.053001	-568.398010	1166.380981	17.784374	27.378750	17.574375
31.049000	-557.539978	1132.160034	14.153125	27.610624	24.740625
86.681000	-487.329010	1096.657959	12.818750	5.508125	28.542500
78.385002	-369.598999	1032.608032	25.287500	-16.611876	32.366249
220.637009	-330.071014	979.355042	46.160625	-21.078751	48.291248
192.210999	-163.723999	980.635986	53.830002	-19.740000	54.468750
95.891998	19.398001	1052.188965	41.212502	-18.200001	68.416252
549.549011	63.195999	1048.589966	27.969376	-5.950000	78.316872
225.089996	244.000000	1059.813965	22.579374	17.530624	72.979378
277.855011	371.795013	1079.639038	12.709375	12.674375	86.410622
273.524017	382.408997	1055.117065	26.215000	10.928750	77.218750
113.277000	549.244019	1095.864990	20.593124	16.100000	69.321877
295.484009	621.528992	936.471985	13.190625	9.690625	67.357498
143.289001	633.911987	980.392029	20.098749	24.421249	50.526875
13.969000	784.703979	955.077026	19.026875	17.115000	15.413125
-117.181000	514.535034	942.755005	6.247500	6.125000	17.211250
-60.817001	434.442017	1018.578003	3.080000	5.289375	14.380625
-102.053001	263.641998	995.215027	4.300625	-7.319375	4.908750
-53.558002	145.240997	1126.120972	5.700625	-15.754375	5.565000
62.037003	257.359009	1143.932983	12.775000	-17.850000	-14.616875
40.564999	178.486008	1128.744019	9.926875	-12.849375	-3.438750
90.341003	230.518997	1148.568970	7.441875	-4.370625	-8.763125
54.411999	256.566010	1133.745972	4.593750	-3.176250	-13.518750
52.704002	224.723999	1121.484985	3.027500	2.992500	-4.068750
-3.111000	232.227005	1118.130005	1.645000	6.982500	-3.950625
7.076000	186.660004	1117.031982	1.483125	3.010000	2.113125
38.430000	206.363007	1099.342041	3.959375	-0.507500	0.052500
29.951000	200.628998	1096.901978	1.977500	-4.825625	-1.356250
79.605003	204.899002	1089.399048	0.135625	-3.578750	2.642500
28.792000	190.197998	1108.675049	0.940625	0.595000	1.841875
4.575000	44.164001	1118.068970	1.483125	-7.616875	0.183750
-29.646000	46.360001	1118.251953	3.828125	0.109375	0.021875
1.464000	7.015000	1123.192993	4.095000	-0.100625	-2.397500
-19.703001	28.121000	1112.213013	3.710000	-4.348750	-2.463125
1.159000	-31.476000	1123.010010	1.535625	-5.753125	1.395625
-37.027000	-152.195007	1168.394043	5.801250	-4.256875	0.249375
-26.718000	-170.556000	1155.766968	8.421875	-1.706250	-3.880625
15.738000	-440.725006	1208.714966	2.139375	0.966875	1.833125
14.762000	-485.804016	1185.046997	6.492500	-2.349375	-0.258125
37.758999	-470.309998	1102.026001	11.068750	11.615625	-0.402500
46.421001	-353.373016	1129.109985	13.545000	11.064375	14.770000
69.479004	-264.862000	1112.518066	11.777500	5.346250	20.094376
42.028999	-220.210007	1115.873047	8.299375	-7.630000	30.327499
26.596001	10.858000	1198.954956	8.881250	-15.513750	37.003750
123.769005	-61.915001	1132.281982	6.295625	-13.396250	46.226250
203.800995	56.791000	1108.552979	6.864375	-21.118126	64.509377
149.999008	116.144005	1012.478027	25.983126	-13.308750	60.935001
207.278000	179.706009	1060.424072	39.016251	-10.578750	72.471878
274.927002	253.760010	1018.151001	48.369999	-13.571250	79.852501
141.824997	390.033997	968.924011	40.341873	2.668750	76.356873
168.970001	386.252014	1091.167969	27.636875	5.079375	84.940628
131.210999	450.240997	1127.584961	5.936875	15.570625	71.154999
45.445000	388.692017	1088.666992	-7.883750	23.235624	64.404373
115.229004	390.522003	1100.073975	-13.273750	2.555000	56.651875
75.457001	430.110992	1163.514038	-10.740625	-13.304375	33.740002
151.279999	440.786011	1114.469971	-2.826250	-12.425000	30.082500
161.466995	388.997009	1026.935059	-2.716875	11.790625	19.276251
77.042999	366.792999	1066.341064	-6.501250	20.448750	10.198125
119.316002	318.907990	1053.775024	-6.501250	20.448750	0.730625
119.316002	314.028015	1101.904053	-0.975625	4.606875	0.730625
36.173000	314.028015	1101.904053	8.557500	1.518125	-6.851250
70.943001	363.377014	1059.997070	6.435625	-1.391250	-7.341250
28.487000	305.427002	1073.722046	11.633125	0.148750	1.535625
46.665001	297.252991	1065.120972	11.519375	12.508125	2.996875
-0.732000	221.552002	1096.414062	9.454375	17.005625	6.343750
15.494000	226.981003	1121.363037	7.603750	4.204375	5.188750
18.971001	191.417999	1137.040039	9.804375	0.000000	0.341250
51.118000	218.990005	1141.370972	8.430625	-0.179375	-3.885000
-45.567001	89.487000	1147.227051	0.262500	-4.414375	-2.559375
38.003002	32.879002	1121.729004	-3.123750	-3.058125	5.569375
-28.059999	61.366001	1119.349976	4.974375	8.592500	0.643125
-35.441002	28.792000	1113.859985	3.040625	5.096875	-0.918750
-46.177002	79.117004	1081.407959	2.266250	4.375000	2.782500
-71.065002	57.767002	1118.557007	1.509375	0.866250	-2.559375
-16.165001	-29.341000	1129.963989	2.782500	-3.255000	-4.484375
44.408001	-106.750000	1142.164062	9.695000	-1.382500	-2.979375
49.715000	-305.183014	1203.530029	7.021875	1.421875	6.728750
84.362999	-391.681000	1142.651978	10.771250	7.861875	4.799375
-4.331000	-276.756989	1066.401978	18.077499	12.083750	5.683125
62.037003	-311.709991	1097.024048	19.193125	3.683750	19.617500
32.818001	-163.053009	1113.494019	15.614375	-2.161250	35.529373
66.184998	-76.311005	1102.818970	2.940000	14.070000	38.578751
71.187004	-93.818001	1113.372070	15.233750	11.261250	74.410004
-30.683001	91.987999	1197.857056	14.888125	-8.015000	70.923126
82.044998	88.084000	1112.822998	-4.077500	-20.925625	58.625000
203.130005	124.745003	1127.645996	-1.916250	-55.050625	72.375626
249.734009	265.472015	1120.875000	3.473750	-48.453125	47.713749
284.076996	280.722015	1091.534058	-0.157500	-41.273750	51.362499
303.963013	339.160004	1110.260986	2.590000	-24.955000	58.104374
177.876007	343.490997	1170.956055	2.795625	17.596251	61.092499
206.790009	417.972015	1138.015991	-7.148750	46.724998	71.885628
96.501999	287.981018	1260.748047	17.246250	46.598125	74.987503
191.052002	446.703003	1076.650024	25.147499	34.851250	62.168751
210.022995	506.421997	964.531982	19.879999	21.017500	62.474998
161.893997	580.354004	1062.558960	21.065624	16.244375	33.770626
87.168999	635.315002	976.304993	14.476875	6.978125	0.490000
-31.903000	569.862000	958.554016	10.845625	1.938125	13.610625
-7.747000	607.864990	1033.218018	3.521875	13.720000	12.184375
-71.858002	477.569000	984.296021	-1.255625	13.230000	14.420000
-35.319000	269.803009	1054.140991	-7.017500	7.083125	16.222500
-44.591000	283.772003	1071.648071	-3.635625	-0.695625	-0.966875
17.080000	239.119995	1089.643066	0.713125	-0.450625	-3.390625
-24.827000	258.822998	1142.468994	7.420000	-0.065625	-7.087500
-21.777000	248.087006	1139.602051	8.806875	-5.499375	-7.411250
31.659000	247.050003	1136.186035	5.560625	-6.794375	-1.981875
28.059999	267.606995	1152.656006	3.281250	-5.433750	-4.147500
39.894001	57.706001	1169.369995	2.143750	-6.501250	-5.910625
14.213000	39.040001	1164.734009	-0.074375	-6.076875	0.796250
13.420000	76.432999	1152.473022	-0.074375	-6.076875	1.452500
-25.315001	15.006001	1147.531982	-0.831250	1.859375	1.452500
-25.315001	15.006001	1155.035034	0.844375	5.893125	3.268125
-11.834001	-20.984001	1155.035034	3.937500	6.269375	-0.966875
-1.952000	-107.787003	1165.099976	8.872500	8.343125	-2.655625
122.610001	-311.832001	1191.208008	7.118125	15.159375	4.025000
78.202003	-418.093994	1181.509033	7.441875	22.680000	10.325000
25.925001	-370.514008	1106.417969	12.180000	44.029999	17.530624
-42.272999	-296.338013	1122.277954	15.246875	37.244373	26.626249
-70.577003	-240.889008	1091.777954	17.596251	8.973125	30.117500
-98.820000	-33.000999	1115.750977	20.050625	-20.378750	28.962500
36.722000	2.257000	1119.532959	17.351250	-43.001877	39.978748
89.487000	145.119003	1073.722046	13.702500	-50.119999	50.531250
19.459000	273.707001	1179.374023	-4.392500	-28.249374	51.887501
228.079010	286.944000	1120.265015	-4.379375	-9.353750	69.151253
78.018997	357.399017	1139.662964	-7.717500	12.433750	70.839996
123.708000	351.665009	1132.098999	-21.472500	31.036249	63.196877
181.292007	328.851013	1148.141968	-15.596875	32.637501	62.829376
64.476997	335.804993	1070.062012	5.761875	31.587500	65.209373
118.401001	250.649002	1151.009033	3.871875	12.906250	53.375000
99.186005	312.563995	1088.849976	5.477500	7.520625	59.233124
68.442001	379.114990	1093.912964	-2.835000	22.504999	53.611252
91.317001	332.816010	1095.560059	0.551250	21.730625	52.469376
11.224000	325.800995	1067.682983	3.408125	29.513750	40.744373
-147.863998	328.179993	1049.199951	-3.469375	34.098751	34.597500
-118.340004	322.446014	1012.661011	-2.625000	13.142500	29.036875
-177.326996	265.899017	1024.312012	-2.296875	3.136875	29.019375
-68.564003	343.795990	1020.773987	-10.290000	-5.796875	19.941250
-86.375999	258.579010	1017.968018	-7.599375	-9.660000	15.741250
-90.889999	288.652008	1057.557007	0.962500	-3.521875	4.243750
-58.316002	319.274017	1048.041016	1.911875	-5.166875	1.155000
-48.068001	267.667999	1065.426025	7.223125	-5.473125	-2.279375
-91.561005	262.239014	1110.932007	5.993750	-7.179375	-2.515625
-27.694000	272.914001	1120.020996	2.345000	-7.087500	-1.146250
-60.389999	237.412003	1174.188965	7.026250	-12.442500	0.568750
-51.423000	210.145004	1163.087036	8.505000	-4.073125	1.710625
-22.204000	-144.447998	1135.332031	-3.036250	3.259375	-14.030625
-91.682999	-4.392000	1134.234009	-6.650000	11.200000	-13.846875
-26.779001	-95.648003	1115.812012	-9.060625	1.728125	-12.871250
-77.348000	-9.943000	1128.011963	-6.816250	-3.285625	-10.198125
-59.170002	86.925003	1092.875977	-5.901875	2.607500	-12.066250
10.065001	89.243004	1064.510986	-4.431875	-5.411875	-7.350000
-49.410000	141.093002	1081.651978	0.297500	-4.025000	-8.404375
-18.177999	-24.948999	1103.062988	0.070000	-5.267500	-8.356250
22.875000	-229.482010	1141.249023	7.577500	-12.236875	-4.186875
-54.778000	-294.752014	1177.848999	13.155625	-6.195000	-3.053750
-30.683001	-238.449005	1210.484009	15.588125	1.036875	-2.813125
-16.836000	-158.844009	1185.535034	16.463125	-0.678125	-4.873750
13.176001	-103.151001	1151.924072	7.993125	-5.114375	-1.102500
-15.738000	37.942001	1127.218994	0.608125	1.080625	0.293125
36.539001	38.796001	1112.761963	-4.226250	3.740625	14.883750
-18.239000	38.063999	1114.713989	-7.686875	1.986250	29.028126
12.688000	99.186005	1088.789062	-7.756875	7.192500	31.600624
12.932000	111.141998	1069.329956	0.078750	3.228750	40.298126
1.281000	145.850998	1121.973022	1.491875	-6.418125	43.741249
31.476000	162.503998	1098.915039	-1.316875	-5.726875	43.531250
48.678001	174.947998	1126.060059	2.804375	1.439375	45.631248
51.423000	199.897003	1128.134033	0.240625	2.541875	39.606876
24.339001	186.660004	1132.953003	-4.733750	7.608125	40.551876
30.683001	186.660004	1127.524048	-5.481875	12.586875	36.334373
-12.749001	136.395996	1090.375000	-5.005000	11.882500	36.907501
3.904000	133.223999	1146.677979	-0.630000	7.148750	32.313751
17.690001	141.093002	1116.056030	0.791875	2.471875	25.939375
9.821000	141.764008	1134.416992	2.012500	-1.080625	31.158751
36.112000	154.330002	1119.716064	2.581250	1.785000	24.285625
-33.733002	169.335999	1097.938965	-4.125625	7.472500	26.118750
26.718000	171.471008	1105.869019	-4.418750	-2.104375	21.564375
-45.688999	96.136002	1121.546021	0.651875	-6.055000	15.938125
-5.063000	174.460007	1097.817017	5.958750	2.436875	12.136250
1.403000	167.567001	1117.825073	1.666875	0.634375	10.154375
2.196000	219.173004	1123.558960	0.669375	2.533125	8.338750
-0.366000	231.434006	1086.104980	0.113750	6.623750	9.970625
-30.988001	189.649002	1139.419067	-0.253750	12.516875	17.049376
-23.363001	278.891998	1099.281006	-1.395625	6.063750	17.758125
-23.729000	36.355999	1123.254028	-3.981250	-2.003750	3.771250
-36.050999	44.225002	1132.708984	-2.051875	-1.207500	0.739375
-22.936001	42.090000	1126.609009	-1.185625	-0.848750	-1.448125
-44.347000	54.290001	1122.765991	-2.716875	-1.426250	1.159375
-14.640000	51.728001	1134.355957	-1.238125	-1.211875	2.436875
-20.374001	-62.037003	1129.354004	2.183125	0.984375	2.353750
22.204000	-177.083008	1133.562988	2.436875	-0.958125	1.916250
-50.691002	-419.740997	1155.645020	2.703750	-0.358750	2.419375
-7.808000	-527.283997	1119.289062	7.643125	2.948750	7.931875
28.487000	-477.813019	1083.115967	4.886875	6.090000	6.645625
96.196999	-392.901001	1081.164062	3.718750	0.376250	13.422500
50.020000	-291.031006	1182.363037	7.555625	-6.741875	30.957500
108.580002	-292.800018	1145.275024	-3.202500	-4.576250	41.566875
132.675003	-73.261002	1117.214966	-14.161875	-3.062500	43.032501
256.321991	-66.917000	986.309021	-9.782500	8.841875	69.654373
64.111000	124.623001	1161.867065	-14.936250	31.451876	71.080627
76.737999	275.963989	1137.588989	-0.468125	21.896875	61.569374
-127.368004	358.740997	1121.546021	-20.995625	-20.391874	71.540001
134.565994	271.144989	1238.239014	-24.810625	-42.665001	68.346252
8.662000	362.462006	1112.030029	-16.931250	-30.817499	44.883125
81.739998	259.799011	1184.985962	-35.013126	-18.816875	63.962502
96.380005	241.926010	1137.650024	-8.758750	-4.895625	35.218750
55.449001	368.623016	1131.854980	9.143750	5.919375	17.145624
120.963005	299.083008	1203.895996	37.261875	-7.437500	19.044374
53.558002	400.464996	1097.755981	49.244999	-7.787500	9.003750
23.302000	418.765015	1045.906006	27.116249	8.106875	16.708124
-35.319000	331.412994	1089.703979	6.873125	14.245000	13.111875
-47.885002	261.385010	1057.618042	-3.443125	10.045000	18.908751
-32.208000	154.878998	1108.187012	-4.361875	3.486875	14.280000
-10.309000	88.938004	1102.208984	-4.318125	5.674375	3.766875
-13.298000	110.593002	1112.334961	-3.084375	5.188750	0.070000
-20.801001	62.952000	1121.484985	-1.846250	2.065000	-2.852500
-2.501000	78.690002	1112.578979	-1.006250	1.128750	-7.004375
-21.228001	64.781998	1116.483032	-0.472500	-1.159375	-5.621875
-1.647000	120.719002	1106.113037	1.264375	-1.697500	-8.526875
-47.824001	66.184998	1099.769043	-0.638750	-1.531250	-4.410000
2.257000	111.508003	1098.244019	-0.389375	-6.768125	-3.220000
-33.306000	-6.527000	1122.338989	-2.690625	-1.680000	8.868125
-1.342000	-64.233002	1123.131958	-3.167500	0.021875	9.642500
-36.722000	-11.041000	1101.233032	-0.568750	1.496250	4.326875
-18.666000	-63.013000	1103.124023	-2.126250	-0.726250	2.603125
-27.145000	-42.882999	1105.686035	-0.227500	-1.561875	0.253750
-24.217001	-77.958000	1108.675049	-1.041250	-2.445625	2.156875
-33.367001	-52.643002	1127.463013	1.719375	-3.176250	2.161250
5.673000	-153.781006	1152.107056	2.060625	-7.301875	0.231875
4.758000	-237.229004	1111.237061	-0.599375	1.203125	4.357500
-30.743999	-296.032990	1104.770996	3.885000	1.448125	1.522500
-14.030000	-308.233002	1068.475952	6.829375	-7.800625	1.820000
-7.991000	-316.162994	1036.024048	6.965000	-0.516250	5.486250
43.980999	-272.914001	1052.372070	3.898125	1.872500	17.123751
-5.612000	-147.619995	1054.202026	-2.550625	-2.253125	33.333126
-27.755001	-238.205002	1097.390015	1.522500	-8.706250	40.726875
-35.319000	-128.832001	1111.541992	2.563750	-4.042500	37.231251
-23.790001	-115.290001	1178.093018	0.778750	-10.486875	37.419376
-14.701000	-16.896999	1198.101074	-5.468750	-19.814375	37.257500
34.221001	-40.320999	1125.999023	-2.778125	-11.414375	40.424999
24.217001	-3.843000	1198.406006	-1.929375	-18.431875	45.924374
91.682999	33.367001	1156.743042	2.686250	-20.873125	39.532501
153.231995	2.562000	1130.025024	12.175625	-18.344376	40.315624
155.184006	48.312000	1148.568970	24.806250	-21.800625	44.603127
131.089005	96.258003	1083.482056	25.790625	-2.865625	36.855000
97.112000	61.610001	1167.723022	8.400000	8.855000	45.250626
152.317001	157.684998	1104.466064	-1.500625	12.656875	39.283127
-62.830002	63.195999	1139.906982	-7.078750	24.806250	33.368126
64.721001	160.369003	1181.936035	4.213125	15.570625	35.984375
6.649000	175.802002	1076.467041	7.918750	8.071875	28.446251
-35.441002	216.123001	1138.504028	1.780625	6.890625	28.918751
71.858002	236.130997	1126.120972	6.348125	1.955625	18.681250
-133.468002	127.612000	1079.212036	3.023125	10.080000	17.530624
59.719002	306.890991	1110.078003	-2.008125	4.830000	7.735000
-8.479000	243.512009	1130.513062	1.811250	-3.329375	-2.445625
-22.814001	284.442993	1088.789062	-0.030625	6.549375	-0.476875
-39.528000	198.555008	1159.792969	2.073750	-2.891875	1.159375
-2.013000	144.264999	1144.725952	12.398750	-0.402500	-2.419375
-52.948002	202.397995	1125.083984	17.180626	9.016875	-9.861250
-15.250000	-137.921005	1112.578979	-1.579375	0.818125	1.544375
-12.017000	-159.393005	1096.536011	-4.620000	-1.723750	1.203125
-11.224000	-122.427002	1117.703003	-6.531875	-7.402500	-2.191875
37.576000	-161.345001	1112.091064	-8.951250	-5.341875	-1.356250
-0.061000	-134.809998	1105.625000	-7.997500	-2.375625	0.218750
19.459000	-170.434006	1097.695068	-2.108750	-1.697500	-0.446250
5.612000	-200.811996	1106.600952	2.143750	1.176875	0.490000
17.446001	-292.921997	1103.978027	5.656875	2.327500	-0.293125
27.999001	-413.153015	1055.177979	8.106875	3.815000	0.651875
-5.612000	-482.815002	1058.166992	4.396875	4.773125	8.421875
-23.058001	-467.503998	1053.592041	4.213125	4.278750	5.407500
-6.222000	-451.644012	1083.359985	-4.760000	-6.523125	10.880625
78.385002	-416.325012	1074.149048	-9.940000	-8.662500	25.318125
16.592001	-356.606018	1085.433960	-6.908125	11.970000	31.101875
21.167000	-441.822998	1007.476013	-1.693125	20.615000	36.172501
-32.146999	-197.639999	1105.259033	8.115625	15.981875	36.540001
-4.026000	-226.919998	1063.779053	6.518750	2.349375	25.760000
-37.209999	-116.998001	1123.985962	7.940625	-24.819374	20.479376
67.832001	-97.294998	1035.841064	12.429375	-42.730625	21.131250
112.606003	-56.181000	1034.072021	22.701876	-42.656250	42.240623
95.648003	18.788000	1050.541992	29.190001	-12.726875	48.505627
79.788002	-143.654999	1025.837036	30.082500	10.591875	69.733124
92.964005	-26.169001	1111.968994	31.714375	20.645624	80.753754
-62.098000	-142.557007	1039.744995	36.010624	14.358750	66.119377
63.440002	44.408001	1163.270020	25.313749	-5.560625	73.430000
-67.039001	-14.091001	1178.276001	28.997499	-5.766250	65.638123
66.978004	146.826996	1221.098022	17.775625	0.210000	66.333748
150.242996	184.037003	1197.734985	10.412500	4.952500	51.603127
126.941002	236.740997	1211.947998	1.308125	8.509375	36.920624
163.662994	302.743011	1139.175049	-6.256250	10.832500	22.876875
-22.204000	216.244995	1152.411987	-12.035625	17.797501	21.809376
71.858002	308.294006	1168.515991	-17.670626	4.694375	16.458750
46.786999	231.434006	1064.389038	-10.495625	-15.863750	8.763125
-38.612999	167.628006	1084.763062	-10.609375	-11.116875	4.025000
-48.250999	298.595001	1064.816040	-5.088125	-12.035625	-3.482500
-59.597000	192.699005	1083.421021	0.205625	-7.888125	5.053125
-115.595001	119.987000	1125.083984	-2.126250	-3.285625	5.744375
-84.180000	71.370003	1154.242065	-1.010625	-10.657500	2.231250
45.628002	-45.445000	1128.195068	-1.260000	-2.100000	-0.490000
35.441002	3.294000	1136.247070	-1.732500	0.708750	2.765000
50.996002	-53.497002	1130.146973	-2.205000	0.953750	4.725000
44.957001	-27.572001	1134.416992	-1.168125	3.106250	4.186875
48.983002	-84.850998	1116.666016	2.616250	2.664375	3.469375
48.556000	-166.408005	1115.079956	3.101875	3.521875	6.238750
58.255001	-307.928009	1107.821045	3.911250	7.319375	10.543750
72.101997	-446.520020	1079.395020	7.988750	6.523125	16.909374
22.936001	-364.109009	1039.013062	9.401875	15.330000	18.895624
56.424999	-390.338989	994.605042	12.328750	19.293751	23.961876
-19.153999	-220.942001	1060.484985	14.201250	1.106875	30.533125
2.013000	-309.087006	1024.556030	16.485001	-0.507500	34.549374
1.586000	-127.856003	1094.889038	28.831249	0.332500	35.468124
52.643002	-123.159004	1119.045044	27.549376	-6.925625	31.101875
57.278999	-12.017000	1155.035034	27.549376	-26.958750	43.491875
208.132004	-76.250000	1135.209961	6.833750	-26.958750	43.491875
208.132004	-76.250000	1201.883057	3.543750	-31.062500	56.087502
85.278000	24.827000	1201.883057	4.239375	-21.367500	48.886250
155.611008	-6.710000	1193.464966	-2.773750	-21.511875	43.645000
291.458008	16.165001	1240.008057	-8.430625	-3.080000	48.698124
223.809006	70.455002	1257.209961	8.785000	18.650625	45.841251
149.876999	82.228004	1136.734985	-8.478750	29.596874	48.597500
134.809998	57.522999	1245.619995	-5.341875	37.817501	69.610626
170.007004	224.723999	1145.640991	9.353750	40.184376	43.636250
128.649002	411.750000	1133.928955	-0.131250	32.375000	40.446877
139.568008	553.757996	1055.421997	-7.931875	-1.785000	48.663124
90.767998	527.588989	985.088989	-12.691875	-4.230625	45.521873
35.441002	461.282013	1053.042969	-19.569374	7.113750	35.546875
-22.143000	335.377991	1032.302979	-18.230625	5.477500	19.061874
-94.245003	270.351990	1051.213013	-10.101875	1.111250	6.295625
-96.014000	218.319000	1075.003052	-0.446250	-4.681250	1.312500
-113.826004	168.481995	1112.334961	1.531250	-4.808125	-1.885625
-96.136002	98.881004	1116.239014	2.261875	-6.037500	0.656250
-66.368004	67.344002	1145.579956	3.915625	-5.232500	-2.275000
-35.501999	49.410000	1160.098022	6.457500	-2.992500	-9.441250
-25.010000	43.371002	1143.140015	7.923125	-4.134375	-12.866875
-16.775000	18.971001	1151.619019	5.696250	-0.490000	-10.941875
-5.246000	61.122002	1116.666016	0.997500	4.453750	-13.221250
-48.494999	-3.904000	1100.806030	-0.280000	-2.489375	-12.359375
-6.344000	10.980000	1107.577026	-3.123750	-7.682500	-12.748750
-4.514000	24.400000	1110.870972	-0.778750	-5.849375	-12.722500
-4.514000	-22.691999	1117.458984	1.360625	-5.376875	-5.551875
35.806999	29.097000	1118.130005	-0.726250	-5.525625	-4.720625
0.122000	-22.082001	1129.109985	-0.844375	-3.211250	-3.206875
35.685001	4.392000	1116.604980	-0.988750	-3.430000	-0.525000
22.082001	10.675000	1126.730957	0.783125	-3.828125	-0.555625
5.978000	-3.416000	1137.406006	2.113125	-0.402500	1.028125
-5.307000	9.394000	1130.269043	2.152500	1.312500	1.785000
-15.067000	10.858000	1131.427979	2.476250	2.410625	2.135000
-3.294000	31.903000	1128.865967	2.073750	2.047500	1.955625
-37.576000	41.541000	1109.833984	1.382500	4.322500	3.342500
-30.683001	10.858000	1118.312988	4.143125	3.430000	3.613750
-32.452000	45.688999	1103.001953	3.250625	1.706250	1.386875
-48.068001	9.333000	1098.854004	1.181250	2.318750	2.721250
