A_X[mg]	A_Y[mg]	A_Z[mg]	G_X[dps]	G_Y[dps]	G_Z[dps]	
78.202003	131.272003	1088.789062	-2.095625	-5.884375	-0.240625
98.027000	118.401001	1120.813965	-3.246250	-4.335625	-1.023750
101.687004	104.798004	1121.911987	-3.031875	-4.239375	-1.675625
112.849998	124.500999	1118.862061	-1.736875	-0.249375	-1.478750
89.121002	89.181999	1106.844971	0.262500	-0.555625	-1.588125
81.923004	94.488998	1111.847046	3.556875	-1.631875	-3.504375
83.936005	5.917000	1132.343018	2.970625	-4.340000	-1.063125
88.999001	-105.042000	1145.823975	11.488750	-4.773125	-4.659375
97.783005	-349.957001	1218.291992	15.137500	-7.923125	-8.041250
110.166000	-396.865997	1189.255981	26.814375	-6.881875	-5.171250
111.386002	-335.744019	1150.520996	27.186251	4.392500	-0.953750
56.547001	-300.669006	1112.578979	13.479375	4.900000	4.913125
195.688004	-207.766006	1084.885010	10.320625	-6.133750	13.685000
117.363998	-117.852005	1114.225952	11.585000	-0.896875	25.449375
238.388000	-49.105000	1166.015015	1.981875	7.074375	35.551250
251.320007	9.882000	1141.614990	-0.376250	6.479375	58.712502
285.907013	134.809998	1207.860962	0.109375	-2.887500	54.315624
382.042999	173.300995	1170.406982	-2.563750	-4.436250	65.174377
297.375000	197.701004	1155.583984	12.569375	7.148750	68.372498
282.429993	209.596008	1079.333984	13.142500	16.104376	56.656250
342.209991	392.596008	1073.661011	-4.908750	26.285000	54.866875
248.391998	319.457001	1048.041016	-8.286250	29.789375	37.778126
85.460999	392.718018	992.653015	-23.935625	24.990000	27.046249
211.059998	349.225006	1140.151001	-19.368126	3.250625	34.711250
136.701004	291.397003	1061.888062	14.389375	-5.158125	25.003124
118.461998	466.222992	1098.182983	-2.769375	6.431250	23.883125
212.402008	514.351990	1071.098999	-9.909375	-21.704374	15.277500
122.915001	607.437988	1056.520020	-11.488750	-15.526875	2.743125
105.042000	517.096985	1155.523071	-16.034374	-5.075000	3.373125
96.563004	408.212006	1127.828979	5.096875	-11.611250	5.131875
57.522999	221.796005	1110.078003	9.196250	10.141250	8.763125
34.952999	224.785004	1129.415039	22.465626	33.845001	-4.716250
-32.390999	171.227005	1057.922974	20.816250	34.505627	-8.820000
4.819000	219.600006	1078.175049	15.491875	12.075000	-3.661875
9.577000	163.419006	1078.723999	8.277500	-11.427500	1.286250
86.375999	189.587997	1113.799072	-2.323125	-16.913750	8.058750
108.275002	141.276001	1139.785034	-4.191250	-14.306250	9.598750
39.345001	31.049000	1098.305054	5.219375	-2.607500	4.497500
42.761002	72.041000	1102.087036	-0.354375	-7.043750	5.499375
80.581001	11.712000	1099.586060	-4.869375	-12.814375	4.755625
108.214005	41.602001	1113.128052	-4.051250	-8.295000	1.544375
99.979004	-37.698002	1124.108032	-2.021250	-0.043750	2.165625
72.651001	-125.721001	1179.068970	7.783125	2.226875	-3.788750
82.777000	-308.843018	1176.690063	9.191875	3.657500	-9.043125
73.749001	-339.648010	1187.120972	7.148750	9.979375	-4.401250
100.894005	-476.776001	1084.275024	9.677500	23.922501	4.663750
17.507000	-359.229004	1094.706055	21.420000	27.658751	11.335625
45.872002	-366.792999	1061.156006	28.708750	29.680000	20.247499
24.948999	-283.710999	1062.619995	29.837500	14.380625	33.438126
57.218002	-185.257004	1062.254028	18.690001	-3.329375	35.494373
207.278000	-78.812004	1051.945068	-4.449375	-13.090000	49.157501
55.693001	30.378000	1016.869995	-38.044998	-16.865625	46.926250
324.093018	-63.806000	1180.289062	-33.171249	-34.615002	62.006874
229.725998	189.039001	1142.591064	-3.675000	-24.416876	63.279999
251.259003	142.007996	1212.375000	7.866250	7.240625	71.767502
206.790009	253.333008	1239.031982	20.046249	19.232500	83.518753
54.716999	171.287994	1172.541992	21.437500	28.984375	72.489372
136.822998	208.436996	1220.976074	15.968750	9.795625	72.948753
113.764999	271.084015	1124.962036	21.441875	-1.701875	52.666248
101.320999	307.013000	1079.578003	21.393749	1.535625	53.978748
274.683014	374.235016	1105.076050	28.109375	-5.411875	38.919998
111.203003	375.028015	1046.942993	28.341249	10.246250	32.698750
174.826004	480.924011	1096.841064	15.596875	11.221875	34.365623
134.749008	347.516998	1101.477051	11.558750	2.025625	36.365002
106.689003	368.013000	1126.487061	19.591249	-0.840000	28.743750
64.111000	402.539001	1033.706055	19.608749	-7.621250	20.702499
111.141998	376.796997	1020.957031	10.880625	-4.261250	14.175000
91.377998	386.191010	1044.747070	11.991875	-5.149375	3.023125
9.882000	370.514008	1027.362061	5.595625	8.233750	0.008750
5.978000	377.894989	1083.848022	9.686250	11.843125	-2.712500
-35.319000	301.828003	1084.213989	9.861250	8.439375	-2.695000
-28.609001	319.822998	1073.295044	8.456875	4.173750	-1.977500
-45.993999	261.019012	1093.302979	-0.875000	0.179375	2.165625
19.947001	283.222992	1102.941040	3.425625	-5.678750	-0.385000
107.542999	-185.501007	1194.197021	-5.035625	-16.686251	-7.135625
94.672005	-86.681000	1174.494019	-3.863125	-13.706875	-8.054375
69.967003	-119.559998	1168.821045	1.461250	-0.144375	-3.688125
79.726997	-70.577003	1166.686035	1.211875	5.390000	-2.480625
58.987000	-27.328001	1136.430054	-0.301875	10.740625	1.776250
18.483000	-15.006001	1123.437012	1.588125	13.829375	5.079375
84.973000	-83.387001	1126.609009	0.131250	4.746875	6.741875
100.405998	-143.837997	1118.678955	5.184375	2.445625	3.123750
143.837997	-237.656006	1124.291016	10.075625	2.082500	3.714375
144.082001	-283.894012	1080.249023	11.501875	5.136250	10.058125
122.792999	-386.557007	1094.706055	17.031876	7.603750	16.126249
125.598999	-267.302002	1100.135010	29.124374	0.533750	14.914375
69.845001	-183.182999	1089.520996	33.591251	-6.759375	15.828750
166.957001	-100.710999	1117.398071	29.684376	-15.093750	26.162500
93.025002	55.510002	1118.739990	19.350624	-11.230625	28.231874
205.143005	-6.954000	1123.802979	5.350625	-9.397500	43.566250
138.470001	219.966003	1169.979980	5.197500	-8.767500	49.288750
156.770004	154.085999	1120.082031	-11.856250	2.401875	43.868126
241.255005	168.725998	1118.495972	-12.228125	-1.260000	58.257500
139.018997	183.731995	1108.308960	-3.062500	2.996875	53.265625
183.731995	108.885002	1123.254028	-4.707500	5.831875	58.152500
199.591995	138.591995	1098.305054	10.666250	1.058750	55.037498
138.591995	87.961998	1109.468018	20.693750	-0.555625	50.920624
289.018005	198.677002	1108.248047	22.080626	-9.983750	35.345627
244.244003	229.604004	1061.156006	14.826875	1.806875	29.277500
135.419998	253.820999	1110.016968	5.223750	22.452499	35.568748
178.852005	260.408997	1115.140991	-2.366875	19.617500	28.306250
74.724998	197.274002	1057.922974	-5.919375	17.333750	32.392502
107.604004	216.854996	1133.135986	-5.862500	22.089375	34.951874
71.187004	202.520004	1128.988037	-5.381250	11.786250	30.625000
100.528000	215.208008	1123.742065	-2.270625	2.870000	32.851875
121.451004	199.591995	1123.010010	7.157500	0.350000	26.075001
76.127998	220.027008	1125.755005	8.531250	7.800625	25.786249
105.042000	240.523010	1106.906006	17.810625	1.483125	25.361876
51.300999	170.861008	1104.588013	29.767500	5.635000	20.610624
86.803001	295.484009	1082.811035	37.751877	8.478750	1.487500
49.959000	336.537018	1024.860962	27.658751	2.957500	1.881250
58.376999	354.959015	1082.505981	11.821250	12.381250	14.056875
56.730000	-39.161999	1161.013062	-3.815000	-12.928125	8.365000
48.250999	35.868000	1165.893066	-4.191250	-2.021250	2.336250
47.824001	-38.247002	1125.023071	1.680000	8.251250	1.163750
-9.211000	62.403000	1127.463013	3.014375	2.581250	4.746875
52.338001	-43.615002	1115.019043	3.132500	0.148750	4.213125
10.431000	-31.476000	1108.187012	2.318750	3.478125	1.421875
35.563000	-196.237000	1139.602051	9.178750	-1.999375	1.754375
20.984001	-279.196991	1141.432007	11.733750	-6.663125	2.467500
34.526001	-500.932007	1134.172974	13.733125	2.375625	9.450000
13.115000	-473.360016	1095.376953	22.579374	7.573125	13.094375
12.200000	-376.431000	1027.666992	25.760000	16.686251	16.598749
92.780998	-358.252991	1057.130005	22.876875	9.310000	33.945625
52.277000	-216.671997	1097.938965	18.615625	1.203125	34.807499
186.111008	-226.981003	1107.333008	11.830000	4.637500	43.133125
143.289001	-55.021999	1211.947998	18.305000	14.647500	56.328125
180.865005	39.040001	1173.945068	10.049375	20.514376	54.700626
190.259003	66.368004	1173.030029	-2.323125	1.023750	75.569374
145.790009	198.798996	1172.176025	-2.883125	-8.850625	57.294998
118.523003	210.694000	1097.938965	-17.631250	-12.066250	51.406250
225.578003	301.339996	1169.675049	-30.716875	-3.080000	46.558750
79.238998	260.653015	1222.623047	-22.789375	11.305000	36.863750
68.625000	324.398010	1191.696045	-16.953125	4.615625	44.931252
164.029007	310.734009	1265.140015	-15.006250	-17.854376	49.065624
129.442001	307.317993	1068.536987	-18.843124	9.782500	30.572500
191.906006	433.222015	1096.291992	-20.584375	17.941875	41.435623
20.374001	402.356018	1066.524048	1.671250	-7.218750	42.748123
2.440000	451.033997	1062.985962	15.343125	-1.369375	12.635000
-107.360001	436.028015	997.471985	17.543751	9.817500	5.153750
-63.440002	434.686005	1101.171997	15.382500	5.923750	3.710000
-103.639000	397.658997	1069.208008	10.762500	4.738125	1.474375
-44.896000	291.763000	1087.264038	6.781250	7.336875	5.643750
-40.809002	191.845001	1114.958008	11.519375	15.509375	2.073750
-75.762001	144.447998	1117.398071	7.148750	13.409375	0.161875
-37.027000	99.795998	1177.666016	12.425000	7.223125	-3.561250
-50.325001	90.951004	1181.265015	20.142500	9.410625	-6.186250
-26.291000	110.105003	1139.906982	15.233750	6.422500	-4.895625
-45.750000	116.570999	1135.820068	8.478750	2.966250	-3.049375
-27.023001	181.231003	1080.005005	2.603125	1.408750	-4.488750
-116.388000	-7.747000	1149.362061	12.127500	-10.854375	7.905625
-73.078003	79.605003	1148.385986	4.628750	-13.558125	9.603125
-61.487999	28.792000	1164.612061	-1.798125	-2.835000	6.899375
-39.833000	57.218002	1149.239990	-5.429375	-0.490000	7.630000
-37.514999	11.712000	1142.347046	-2.082500	-4.641875	5.503750
-32.025002	-59.963001	1165.893066	-2.603125	0.140000	4.633125
-24.461000	-284.808990	1168.333008	1.872500	3.045000	3.832500
-47.396999	-271.571991	1069.879028	10.928750	9.305625	-1.067500
-86.925003	-513.802979	1091.350952	10.202500	19.127501	9.786875
-50.325001	-388.326019	1058.838013	18.029375	7.301875	14.520625
-71.796997	-383.751007	999.057983	23.629375	10.941875	18.129999
-51.667000	-221.369003	1083.177002	23.734375	-5.031250	26.971874
-2.501000	-156.587006	1051.884033	21.122499	-13.650000	24.443125
21.410999	-179.522995	1086.593018	18.655001	-26.582500	34.553749
95.526001	65.270004	1145.946045	29.185625	-28.135626	31.885000
31.232000	59.109001	1152.717041	22.058750	-18.414375	25.090626
99.735001	98.392998	1134.722046	21.503124	-14.507500	44.948750
106.322998	275.292999	1125.999023	16.436874	-11.515000	25.768749
36.539001	326.045013	1086.471069	-0.634375	-15.719375	32.322498
293.348999	429.806000	1173.213013	-13.492500	-3.023125	50.793751
50.691002	418.032990	1186.572021	-38.325001	11.261250	66.355621
458.903015	286.639008	1245.742065	-41.698124	30.498125	83.111877
129.930008	211.059998	1320.406006	-19.950001	26.311251	65.708122
118.523003	368.378998	1248.730957	-25.795000	23.108749	61.368126
199.531006	289.750000	1162.843018	-32.838749	6.741875	47.836250
60.512001	343.613007	1205.359985	-24.876249	0.630000	26.433750
94.000999	483.973999	1052.005981	-23.038750	-3.141250	5.810000
-35.196999	322.994995	968.863037	-10.027500	6.006875	13.545000
-120.474998	423.035004	1127.707031	0.087500	18.274376	6.413750
-51.423000	373.076019	1010.465027	7.914375	7.306250	-2.432500
-33.489002	267.240997	1019.614990	10.911250	11.716250	4.567500
-95.891998	199.165009	1079.822021	4.589375	18.589375	-0.196875
-74.603004	73.566002	1096.047974	4.541250	21.599375	3.154375
-85.217003	103.090004	1171.200073	15.391250	5.153750	-0.997500
-96.196999	77.775002	1115.629028	16.883125	-1.470000	-7.310625
-77.165001	143.654999	1141.920044	10.171875	0.000000	-3.815000
-101.320999	6.710000	1151.253052	6.698125	7.481250	-5.989375
-14.579000	142.374008	1166.563965	15.946875	9.235625	-11.838750
33.793999	-50.202999	1125.266968	-0.857500	-3.556875	2.835000
28.792000	-36.600002	1127.890015	0.647500	-0.691250	4.886875
34.952999	-45.811001	1113.859985	2.786875	2.498125	7.796250
34.038002	-21.167000	1124.291016	3.123750	-2.244375	7.826875
65.636002	-16.042999	1118.191040	0.564375	-5.381250	5.604375
64.416000	-89.364998	1144.848022	1.067500	-2.931250	4.659375
94.428001	-172.447006	1162.171997	5.783750	-4.891250	-0.074375
69.845001	-312.563995	1144.359985	11.497500	1.911875	0.511875
82.349998	-449.570007	1119.411011	5.998125	21.997499	8.015000
1.342000	-504.897003	1045.479004	3.469375	30.003750	10.561250
5.307000	-401.014008	1030.900024	3.198125	22.255625	10.801875
67.099998	-434.197998	1013.942017	1.146250	16.852501	20.405001
-14.884000	-310.123993	1056.154053	7.179375	-9.213750	32.025002
152.134003	-280.112000	1090.009033	8.680000	-27.566875	31.141251
139.080002	-140.421997	1122.765991	14.651875	-16.944374	43.675625
110.959000	-8.723001	1165.222046	13.251875	-5.993750	49.455002
122.854004	67.954002	1236.042969	6.763750	-2.856875	55.544998
95.343002	153.537003	1227.015015	-3.644375	6.912500	55.264999
192.820999	139.445999	1184.802979	-15.448125	17.867500	47.630627
137.432999	194.651001	1160.402954	-15.448125	17.867500	47.967499
137.432999	150.669998	1069.940063	-26.726875	18.226250	47.967499
221.735001	150.669998	1069.940063	-22.745625	23.743126	48.466251
46.970001	198.372009	1090.497070	-5.341875	28.844376	44.576874
31.110001	244.975998	1169.004028	-1.736875	13.794375	42.927502
54.107002	150.304001	1168.394043	4.278750	-30.375626	38.075626
23.790001	279.684998	1152.046021	-1.378125	-36.526875	34.129375
60.084999	283.588989	1212.313965	-3.469375	-25.620001	31.548124
73.321999	138.408997	1188.707031	-0.420000	-28.853125	26.280624
-10.065001	240.035004	1096.780029	-9.520000	-4.497500	7.778750
7.076000	139.751007	1173.395996	-2.069375	3.355625	3.539375
-2.989000	196.664001	1150.886963	15.535625	-26.696251	3.097500
-10.675000	218.319000	1069.573975	17.233126	-27.326250	7.608125
89.487000	229.238007	1096.291992	18.116875	-7.826875	12.481875
18.117001	228.994003	1102.941040	17.254999	6.881875	13.317500
44.285999	158.660995	1095.987061	15.579375	17.753750	10.416875
13.908000	123.830002	1118.312988	11.445000	14.144375	5.302500
27.816000	135.054001	1097.511963	5.818750	5.674375	-3.451875
-24.156000	47.396999	1091.594971	1.680000	0.091875	-8.382500
-8.113000	-98.942001	1117.276001	1.041250	-0.476875	8.483125
16.775000	-103.578003	1123.315063	-1.277500	-5.114375	9.922500
-19.825001	-120.779999	1115.506958	-1.837500	0.503125	6.531875
1.647000	-125.293999	1095.926025	-0.118125	0.433125	3.075625
2.806000	-150.487000	1087.325073	3.351250	-4.838750	3.360000
-4.209000	-165.309998	1096.230957	2.528750	-5.884375	5.236875
16.287001	-351.360016	1152.107056	3.465000	-10.543750	5.245625
85.827003	-503.188995	1104.709961	13.006875	-17.416876	3.955000
50.996002	-555.770996	1089.582031	11.440625	-12.626250	10.810625
96.501999	-532.468994	1035.841064	18.265625	5.083750	11.484375
-11.468000	-408.578003	1041.818970	32.375000	8.710625	17.810625
80.520004	-339.464996	1088.972046	31.766874	-15.176875	28.021875
113.216003	-296.459991	1071.404053	24.828125	-17.189375	28.647499
112.239998	-223.016006	1083.115967	27.453125	-18.208750	36.176876
247.050003	-104.431999	1201.516968	19.722500	-12.276250	30.261875
177.570999	1.708000	1171.932007	5.788125	-3.005625	28.966875
218.684998	169.824005	1192.733032	7.026250	-2.852500	47.810001
216.550003	183.610001	1219.390015	18.803749	-14.643125	45.565624
79.971001	249.551010	1088.301025	14.048125	-22.570625	49.568748
325.739990	314.942993	1145.458008	3.255000	-19.250000	45.381874
181.048004	218.624008	1049.443970	-3.075625	-1.360625	40.061874
174.887009	334.218994	1041.331055	-17.206875	33.971874	45.963749
83.936005	36.355999	1089.947998	-18.825624	60.418751	42.682499
3.904000	274.683014	1091.777954	7.708750	75.652496	46.724998
187.880005	379.786011	1184.619995	38.281250	56.183750	36.045624
99.125000	498.735992	1105.076050	48.448750	12.626250	8.588125
-124.135002	608.536011	1134.355957	14.245000	-19.836250	5.866875
46.726002	483.852020	1051.213013	-8.448125	-22.216249	21.529375
8.723001	338.123016	1031.510010	-19.429375	-7.730625	15.557500
-54.534000	192.455002	1083.055054	-14.192500	0.730625	-2.296875
-120.048004	121.451004	1074.759033	0.835625	4.344375	-4.165000
-141.824997	94.245003	1087.751953	0.323750	-1.763125	-2.021250
-96.868004	82.411003	1129.171021	0.223125	-7.043750	0.905625
-30.316999	88.876999	1113.738037	5.893125	-10.587500	0.700000
2.806000	118.340004	1143.628052	4.243750	-10.329375	-0.748125
9.943000	116.632004	1110.200073	3.902500	-3.876250	-3.670625
-17.507000	139.018997	1140.456055	4.746875	-2.008125	-2.852500
6.039000	176.350998	1140.089966	2.069375	0.813750	-2.441250
46.970001	42.334000	1110.810059	2.546250	-3.176250	5.836250
26.596001	45.688999	1104.526978	2.401875	-0.280000	4.930625
25.986000	46.360001	1118.374023	2.178750	-1.566250	2.708125
26.596001	12.200000	1107.088989	1.741250	-3.911250	1.500625
40.625999	-0.793000	1126.609009	2.476250	-4.471250	0.201250
38.063999	-94.672005	1131.733032	2.178750	-4.571875	1.693125
67.832001	-333.731018	1187.243042	10.163125	-8.246875	1.190000
31.171000	-476.287994	1123.498047	17.500000	0.468125	3.045000
-61.243999	-544.913025	1060.180054	15.916250	12.735625	14.214375
60.512001	-551.744995	1065.243042	16.708124	7.905625	8.273125
6.161000	-363.438019	1094.096069	10.106250	-4.471250	6.868750
186.904007	-292.373016	1116.604980	2.410625	-12.652500	16.309999
123.708000	-165.919998	1193.160034	-3.045000	-18.510626	21.905624
55.449001	34.038002	1217.499023	-10.403750	-39.239376	21.577499
372.770996	161.100998	1187.303955	4.033750	-54.398750	31.530624
243.389999	185.378998	1160.525024	17.272499	-39.431873	40.853748
285.723999	385.641998	1225.795044	8.050000	-6.715625	31.543751
246.988998	429.196014	1062.558960	-4.445000	13.671875	60.987499
238.570999	312.625000	1148.812988	-20.020000	25.860624	74.261253
151.218994	222.345001	1137.344971	-22.736876	24.622499	62.807499
285.053009	317.871002	1138.381958	-15.938125	-6.396250	54.416248
264.496002	256.200012	1148.081055	10.596250	-41.011250	51.900623
324.641998	352.153015	1092.815063	26.228125	-27.851250	24.758125
151.768005	384.300018	998.936035	28.476875	27.916876	29.273125
98.637001	298.960999	1079.029053	17.294374	65.581253	31.981251
29.829000	197.457001	1018.578003	7.511875	57.001877	22.728125
-3.172000	251.380997	1028.032959	2.607500	32.619999	18.287500
6.161000	164.395004	1025.044067	3.373125	-0.713125	14.358750
17.202000	127.794998	1029.130981	-0.122500	-1.028125	12.915000
62.952000	180.011002	1106.906006	0.249375	-12.359375	6.251875
55.815002	171.471008	1110.993042	3.031875	-12.451250	4.213125
55.144001	218.746002	1138.138062	3.880625	-10.215625	3.307500
46.909000	203.007996	1166.807983	-3.106250	-12.083750	4.051250
39.223000	149.755005	1126.364990	-6.947500	-3.023125	0.096250
13.725000	112.544998	1166.869019	-2.594375	-0.695625	-1.815625
38.003002	127.124001	1163.391968	2.725625	-0.485625	-6.146875
57.278999	144.082001	1143.018066	4.423125	7.765625	-6.650000
59.170002	146.460999	1132.831055	2.883125	9.078125	-6.479375
59.597000	-28.059999	1102.087036	0.210000	-1.124375	-0.975625
65.696999	-52.521000	1114.592041	1.115625	-3.403750	1.999375
45.139999	-20.130001	1126.791992	1.732500	-1.968750	0.406875
39.894001	-47.763000	1120.265015	0.455000	-2.008125	-0.161875
47.763000	-66.856003	1123.315063	-0.389375	-3.298750	-0.673750
25.193001	-162.138000	1128.805054	0.713125	1.071875	1.089375
85.155998	-411.627991	1226.161011	14.914375	-1.697500	3.040625
105.103004	-583.038025	1121.484985	21.905624	-2.730000	5.079375
61.671001	-673.622986	1158.695068	23.170000	18.094999	14.061250
11.346000	-497.576996	1097.268066	23.751875	34.899376	4.987500
1.037000	-422.973999	1089.765015	17.565624	23.861250	14.091875
49.166000	-249.063004	1133.868042	10.976875	0.354375	24.241875
38.247002	-204.960007	1128.744019	-2.069375	4.921875	26.280624
146.888000	-65.879997	1149.301025	-8.601250	-1.211875	39.952499
95.160004	-20.007999	1076.833008	-8.098125	4.046875	49.748123
60.268002	51.789001	1113.555054	-14.406875	23.200624	68.661247
216.061996	113.216003	1075.125000	-21.503124	18.926250	56.608124
34.098999	196.481003	1053.409058	-25.108126	8.736875	57.119999
338.367004	178.486008	1084.336060	-28.065624	-9.187500	44.310001
68.259003	254.003998	1028.520996	-17.657499	-13.842500	35.940624
-10.614000	295.972015	1085.800049	-3.994375	-6.654375	49.634377
115.778000	131.943008	1122.948975	25.016251	-3.609375	53.506248
-63.744999	358.740997	1242.082031	31.123751	7.980000	45.136875
-30.988001	352.763000	1241.716064	22.273125	-8.548750	49.940624
84.973000	231.617004	1158.695068	19.652500	-19.831875	53.558750
-27.816000	261.446014	1168.698975	7.214375	10.088750	30.625000
-73.321999	159.514999	1126.487061	-0.533750	15.903125	18.532499
-50.325001	199.653000	1107.515991	17.351250	-0.161875	31.981251
-41.541000	247.538010	1059.813965	10.841250	2.716875	20.754999
29.951000	360.326996	1040.537964	7.306250	-5.114375	10.797500
-76.737999	287.248993	1055.787964	7.319375	-1.452500	8.159375
3.843000	289.506012	1097.878052	1.596875	-6.973750	1.885625
-76.494003	192.516006	1114.592041	4.108125	-6.781250	-0.931875
-33.916000	175.923996	1114.592041	9.738750	1.483125	-2.314375
-98.332001	91.195000	1130.573975	10.193750	5.993750	0.065625
-28.731001	146.095001	1143.872070	10.193750	0.612500	-4.786250
-57.340000	138.287003	1155.828003	10.583125	0.612500	-4.786250
-57.340000	138.287003	1167.052002	7.358750	-5.324375	-6.050625
-20.434999	46.177002	1128.255981	-0.288750	-6.584375	1.658125
-35.257999	67.649002	1111.786011	0.818125	-4.698750	2.638125
-17.141001	42.882999	1122.521973	2.051875	-4.830000	1.343125
-27.267000	39.161999	1124.839966	1.242500	-3.718750	0.761250
-19.337000	16.287001	1127.951050	0.516250	-2.292500	-0.476875
-49.653999	10.858000	1099.646973	2.441250	-0.153125	1.168125
-60.451000	-151.585007	1177.544067	9.305625	-5.512500	-1.986250
28.914000	-274.500000	1154.546997	11.440625	-8.675625	-5.849375
-68.076004	-466.222992	1104.343994	11.379375	8.001875	6.816250
-26.596001	-437.248016	1087.385986	12.495000	15.478750	6.938750
-70.760002	-375.394012	1071.160034	13.562500	13.466250	7.188125
30.073000	-405.283997	1110.749023	8.798125	-3.320625	26.936874
-79.910004	-181.962997	1119.776978	-1.601250	-0.406875	35.748123
-75.579002	-538.630005	1140.883057	-40.350624	-16.043125	32.921875
319.213013	-208.803009	1200.602051	-53.423126	-20.046249	17.850000
210.084000	-49.227001	1084.152954	-30.165625	-4.138750	24.657499
152.805008	33.000999	1240.130005	1.190000	12.656875	43.246876
125.477005	247.171997	1222.440063	13.129375	20.164375	67.834373
89.914001	230.214005	1174.372070	-6.269375	9.900625	77.546875
69.784004	288.652008	1197.369019	-3.535000	7.901250	58.883125
71.248001	253.028000	1145.031006	8.771875	25.191250	16.253124
-111.691002	314.149994	1126.914062	-7.533750	11.471250	14.525000
50.935001	275.170990	1068.536987	-6.811875	-12.088125	9.375625
-26.352001	295.057007	1112.761963	-13.335000	-22.575001	15.964375
54.229000	368.317993	1110.078003	8.404375	-30.100000	17.801874
-12.993000	203.557007	1026.324951	21.004375	-10.460625	19.661249
111.996002	381.677002	1209.141968	41.654373	-9.165625	-0.669375
27.267000	735.416016	1041.026001	48.685001	-8.806875	-8.526875
17.507000	352.397003	1121.729004	34.956249	28.096251	-10.950625
-147.070999	396.988007	1079.395020	32.921875	23.900625	-14.560000
-84.667999	350.994019	1027.178955	3.539375	18.484375	7.883750
-131.149994	203.800995	1047.552979	-2.467500	-6.063750	5.718125
-47.275002	157.014008	1055.727051	-12.521250	-11.812500	6.908125
-54.473000	136.639999	1116.421997	-7.406875	-17.071251	3.320625
-8.662000	100.467003	1144.359985	-4.458125	-13.295625	4.847500
-13.603000	156.587006	1138.687012	5.376875	-12.845000	1.491875
-6.771000	100.589005	1114.652954	-0.231875	-12.604375	9.808750
10.126000	149.084000	1095.072021	4.335625	-16.646875	4.042500
38.735001	-4.392000	1121.667969	3.031875	-5.608750	-2.310000
58.376999	-16.287001	1120.692017	0.538125	-5.608750	-1.006250
58.376999	-63.562000	1121.180054	0.319375	-1.960000	-1.006250
71.858002	-63.562000	1121.180054	2.060625	-2.086875	2.957500
47.640999	-31.110001	1125.266968	3.836875	-1.483125	6.090000
23.973000	-122.610001	1145.031006	1.631875	-3.185000	10.963750
154.391006	-333.243011	1201.639038	10.097500	-5.761875	9.340625
79.483002	-401.807007	1178.947021	14.420000	-1.798125	10.626875
127.246002	-476.532013	1154.302979	9.012500	13.654375	14.354375
148.046997	-380.945007	1097.084961	12.621875	9.423750	18.388124
118.950005	-340.807007	1025.348999	11.488750	-6.365625	25.357500
117.852005	-224.906998	1043.405029	16.406250	-14.450625	29.894375
158.173004	-138.287003	1019.127014	12.556250	-8.929375	30.353750
212.585007	-119.133003	1103.916992	12.989375	-13.632500	46.353127
138.531006	17.080000	1066.828979	11.536875	-10.193750	44.485001
228.994003	30.134001	1168.211060	-2.034375	-13.072500	55.422501
410.286011	174.277008	1234.091064	4.125625	-27.221251	57.636250
186.964996	224.785004	1157.170044	26.499374	-17.587500	73.360001
298.960999	323.239014	1198.894043	32.405624	-14.603750	75.840622
205.692001	261.933990	1109.041016	22.955626	-0.691250	75.267502
244.427002	316.162994	1136.063965	6.807500	25.090626	64.338753
309.330994	331.230011	1123.315063	-4.956875	25.746876	42.669376
274.743988	391.376007	1100.867065	-11.620000	30.511250	30.279375
166.895996	445.727020	1119.289062	-15.828750	34.383125	27.313126
52.521000	319.761993	1044.136963	-10.990000	19.302500	31.832500
98.697998	347.334015	1071.281982	-7.183750	-9.253125	28.905624
142.740005	210.266998	992.226013	0.043750	-21.551250	25.270000
130.600998	300.973999	1044.869019	10.600625	-9.835000	13.978125
82.106003	269.742004	1085.556030	5.950000	5.057500	7.805000
130.173996	261.385010	1099.708008	4.816875	6.698125	2.340625
25.802999	247.781998	1123.192993	8.229375	1.325625	-3.084375
63.500999	219.660995	1120.813965	1.614375	-3.346875	-6.190625
92.964005	180.865005	1120.936035	2.891875	-9.314375	-8.916250
74.542000	91.195000	1154.425049	0.879375	-6.986875	-8.894375
86.253998	99.857002	1104.222046	-0.612500	2.975000	-7.262500
79.238998	61.671001	1147.044067	-0.866250	4.423125	-5.635000
103.883003	82.899002	1118.130005	0.966875	-5.420625	-11.248125
115.045998	83.082001	1098.854004	-1.032500	-4.606875	-9.301250
87.656998	48.617001	1114.713989	0.218750	-0.717500	-1.776250
64.598999	39.101002	1113.494019	-0.879375	1.461250	-2.170000
66.124001	-2.013000	1099.708008	-3.106250	-1.933750	-0.997500
54.107002	8.418000	1096.536011	-2.870000	0.603750	-1.080625
35.380001	-63.257000	1127.036011	-2.401875	2.528750	-0.017500
32.818001	-302.255005	1195.051025	-4.331250	-3.714375	1.841875
99.735001	-390.095001	1189.805054	-2.839375	-7.411250	-4.077500
67.099998	-484.462006	1147.104980	1.767500	8.041250	3.198125
110.653999	-392.718018	1130.208008	4.742500	16.948750	13.352500
88.876999	-416.934998	1105.990967	5.985000	7.017500	18.961250
106.139999	-245.098007	1158.328979	9.975000	-7.065625	29.028126
260.713989	-252.235001	1150.886963	9.139375	-2.559375	34.426876
75.029999	-102.236000	1125.389038	4.497500	-3.478125	36.553123
222.223007	-26.108000	1138.992065	5.123125	-13.308750	39.283127
166.469009	-45.018002	1095.620972	13.479375	0.030625	62.282501
244.244003	118.645004	1110.566040	3.543750	16.161249	62.628124
218.807007	199.531006	1065.182007	-0.774375	4.781875	63.748123
300.181000	471.225006	1032.729980	-5.635000	3.412500	74.353127
280.966003	260.287018	1193.343018	-8.570625	1.286250	77.975624
288.468994	394.914001	1106.357056	-24.871876	-23.113125	67.353127
298.412018	295.789001	1182.180054	-28.936251	-53.169376	64.391251
424.194000	248.148010	1196.697998	-12.928125	-25.440624	41.291248
182.572998	436.942993	1163.758057	-5.035625	21.056875	28.603750
188.794998	269.558990	1140.151001	0.914375	39.344376	30.664375
50.020000	382.165009	1065.730957	10.307500	28.608126	-7.131250
-99.735001	300.973999	1051.151978	-0.332500	25.370625	-13.221250
-13.481000	249.367996	1086.104980	-2.804375	-2.213750	-12.123125
52.643002	123.830002	1076.588989	-6.050625	-7.783125	-13.076875
130.052002	114.497002	1081.224976	-2.331875	-2.257500	-25.983126
17.568001	106.445000	1133.562988	-0.415625	1.159375	-24.027500
154.451996	151.279999	1159.854004	-0.415625	1.159375	-8.868125
25.132000	2.257000	1131.244995	8.216250	-7.673750	-8.868125
25.132000	2.257000	1155.766968	8.251250	-1.369375	0.472500
60.938999	53.131001	1155.766968	14.896875	3.679375	1.531250
47.885002	37.088001	1094.339966	16.139376	3.320625	-2.314375
49.897999	49.410000	1109.712036	6.103125	3.342500	-8.575000
42.151001	23.973000	1121.302002	-0.905625	0.910000	-4.900000
128.404999	54.778000	1123.925049	2.629375	-1.701875	-5.306875
99.735001	-65.086998	1131.367065	-0.910000	-5.823125	-0.958125
106.201004	2.379000	1143.018066	-1.894375	-1.509375	-0.240625
107.725998	-50.813000	1138.504028	-1.509375	1.855000	1.894375
103.578003	-16.775000	1122.400024	1.430625	2.270625	0.280000
98.637001	-40.443001	1099.281006	3.381875	0.043750	0.433125
91.682999	-38.307999	1099.463989	3.473750	1.111250	0.083125
62.220001	-92.292999	1100.806030	0.581875	-0.183750	2.047500
75.884003	-201.788010	1109.162964	3.963750	-3.898125	0.039375
50.325001	-333.731018	1118.801025	4.921875	-0.756875	3.154375
62.220001	-416.386017	1097.572998	9.664375	3.609375	14.805000
40.687000	-348.371002	1113.615967	17.780001	6.746250	13.632500
48.617001	-449.143005	1056.458984	18.803749	-0.844375	21.209999
103.273003	-322.933990	1099.098022	13.260625	-4.948125	20.046249
124.013000	-370.148010	1037.732056	6.720000	13.580000	19.000626
140.544006	-300.791016	1090.863037	2.716875	17.880625	31.421249
89.548004	-235.277008	1176.629028	-3.460625	-5.433750	28.358749
224.846008	-224.479996	1110.810059	-7.564375	-19.149376	38.762501
185.501007	-40.260002	1172.297974	3.246250	-29.067499	39.633125
193.553009	-76.127998	1175.042969	1.076250	-40.599998	46.646252
327.447998	45.506001	1137.100952	6.763750	-21.752501	53.681252
226.737000	94.855003	1040.781982	10.797500	1.076250	53.821251
294.934998	163.053009	1100.317993	-3.692500	7.433125	66.189377
354.166016	208.498001	1080.066040	-13.623750	-5.101250	52.053749
356.545013	254.370010	1138.504028	-5.341875	-25.313749	40.599998
419.192017	298.290009	1127.097046	-8.579375	-23.808750	46.366249
285.053009	204.716003	1084.885010	-6.396250	-12.201875	60.663750
294.569000	265.959991	1115.323975	-0.980000	-10.351250	44.944374
121.634003	269.071014	1106.113037	-0.621250	-10.206875	32.340000
177.936996	301.339996	1169.369995	0.735000	-20.006874	23.069374
121.939003	253.882004	1188.097046	1.198750	-18.256874	10.972500
162.320999	264.618011	1149.057007	3.045000	8.456875	1.036875
143.716003	145.729004	1166.197998	10.285625	21.083124	2.375625
85.948997	60.329002	1118.984009	11.261250	19.691875	-2.961875
46.421001	18.726999	1117.031982	8.085000	19.709375	-2.047500
81.801003	9.821000	1121.484985	5.862500	10.600625	-3.185000
97.478004	-54.167999	1114.286987	4.637500	2.778125	-2.362500
157.257996	9.150001	1116.177979	-0.262500	-1.448125	-2.598750
121.389999	-39.528000	1106.600952	0.949375	1.141875	-3.517500
91.439003	-37.149002	1118.922974	-0.113750	1.050000	0.153125
96.684998	-48.373001	1119.228027	-3.036250	1.631875	0.984375
86.925003	-15.616000	1125.876953	-3.036250	1.631875	2.546250
80.703003	-14.274000	1106.417969	-3.666250	1.736875	2.546250
80.703003	-14.274000	1135.942017	-0.459375	0.021875	4.536875
106.322998	-12.566000	1135.942017	-1.395625	0.516250	5.254375
90.036003	-134.078003	1140.760986	1.938125	1.820000	6.146875
131.210999	-225.456009	1141.553955	7.061250	1.894375	0.555625
112.484001	-363.438019	1084.396973	3.867500	7.678125	0.888125
73.504997	-406.808990	1023.213989	6.103125	7.354375	6.825000
78.507004	-409.309998	1003.937988	11.523750	3.797500	7.616875
52.154999	-297.375000	1011.319031	8.010625	-2.646875	9.520000
201.238998	-282.674011	1025.410034	2.450000	-18.628750	19.923750
113.033005	-150.365005	1110.139038	4.007500	-24.276875	22.636250
189.832001	-97.904999	1130.635010	3.924375	-39.125626	30.463125
297.070007	-86.863998	1146.433960	9.922500	-28.231874	46.563126
206.057999	-6.527000	1111.541992	18.353125	5.936875	55.234375
258.945007	-6.466000	1164.428955	21.389376	-1.439375	63.765625
240.096008	82.959999	1185.412964	13.330625	-4.143125	50.990623
252.417999	131.699005	1178.825073	5.639375	8.028125	43.771873
239.119995	134.565994	1155.035034	-5.171250	9.060625	45.828125
183.792999	119.316002	1187.303955	-13.273750	6.951875	38.705624
201.971008	120.658005	1100.500977	-13.571250	7.441875	36.697498
254.796997	115.900002	1164.612061	-10.228750	-0.752500	40.389999
237.656006	148.718002	1206.213989	-15.316875	-11.195625	32.331249
226.615005	139.994995	1076.467041	-15.688750	-14.923125	29.155001
223.382004	201.056000	1215.364014	-11.449375	-22.430626	28.196875
227.102997	175.619003	1127.463013	-0.179375	-18.475624	13.965000
140.238998	212.585007	1064.816040	-0.656250	-2.393125	11.663750
99.125000	230.458008	1114.042969	5.595625	-2.668750	13.278125
103.639000	164.089996	1084.458008	9.493750	-3.491250	7.945000
120.169998	171.348999	1106.479004	10.714375	3.456250	6.400625
107.787003	91.256004	1115.750977	14.914375	3.530625	8.999375
134.078003	78.323997	1107.211060	10.307500	9.625000	7.498750
129.686005	35.075001	1109.468018	6.934375	8.456875	7.966875
152.438995	8.479000	1115.263062	5.206250	1.981875	3.084375
137.860001	-9.272000	1096.170044	-0.651875	-0.446250	-3.640000
136.152008	-8.174000	1123.619995	-2.795625	-1.846250	-3.408125
120.414001	-45.932999	1093.425049	4.160625	-1.872500	7.542500
114.985001	-47.336002	1100.744995	4.803750	-3.710000	4.256875
137.555008	-73.139000	1093.302979	2.432500	-4.501875	2.082500
138.104004	-53.618999	1101.477051	-0.441875	-7.035000	3.854375
160.613007	-114.557999	1119.105957	-6.422500	-12.573750	7.188125
98.332001	-92.537003	1124.901001	-5.643750	-1.159375	6.374375
102.663002	-254.431000	1116.360962	1.636250	1.605625	1.246875
183.548996	-400.221008	1120.143066	11.379375	-8.483125	-4.318125
172.691010	-532.713013	1039.806030	14.297500	-1.277500	2.677500
144.264999	-568.763977	980.208984	17.797501	7.870625	9.126250
48.434002	-507.886017	1000.705017	23.095625	-4.532500	5.158125
295.727997	-465.429993	990.700989	15.308125	-24.206875	5.613125
242.231003	-274.683014	1082.994019	17.543751	-31.071251	11.676875
231.007004	-319.518005	1133.197021	10.570000	-29.938126	14.113750
472.079010	-104.798004	1210.484009	5.390000	-24.622499	24.303125
364.048004	-98.149002	1098.488037	10.110625	-1.071875	38.224377
392.473999	72.101997	1103.795044	2.279375	27.772499	66.058128
237.778000	146.156006	1150.459961	2.629375	36.898750	81.077499
206.423996	116.753998	1129.232056	4.620000	22.780624	77.419998
239.852005	238.632004	1169.065063	-10.876250	8.268750	57.198750
256.078003	254.126007	1113.555054	-15.710625	-5.031250	47.407501
243.938995	341.173004	1192.183960	-25.755625	-10.185000	42.835625
363.925995	321.347992	1228.723022	-28.490000	-10.018750	37.983749
284.138000	276.696014	1109.041016	-12.639375	-9.935625	31.893749
158.722000	325.130005	1209.812988	-3.220000	-23.590000	35.533749
290.299011	282.613007	1167.723022	17.701250	-35.691250	37.345001
196.542007	174.703995	1012.721985	16.975000	-27.234375	33.639374
172.324997	149.755005	1043.099976	2.817500	-1.544375	25.921875
92.354004	68.930000	1045.417969	-5.411875	11.690000	11.663750
116.448997	59.475002	1099.890991	-3.346875	1.684375	-0.568750
44.103001	1.281000	1076.833008	-1.150625	-6.028750	-4.882500
162.748001	-0.366000	1168.394043	4.886875	-10.718750	-1.303750
188.856003	-30.134001	1134.722046	13.781250	-7.507500	4.637500
236.436005	-81.984001	1130.940063	16.148125	-0.210000	7.280000
245.403000	-72.895004	1122.461060	8.295000	3.806250	0.726250
199.348007	-89.304001	1128.682983	5.005000	5.508125	1.225000
211.792007	-73.566002	1117.581055	3.583125	4.978750	-3.570000
178.852005	-80.946999	1101.660034	2.909375	5.621875	-3.211250
82.289001	-103.578003	1108.369995	2.594375	-1.303750	-2.069375
47.458000	-51.545002	1098.549072	2.594375	0.301875	-4.204375
69.357002	-65.391998	1100.562012	5.411875	0.301875	-4.204375
69.357002	-49.410000	1093.912964	5.735625	-2.690625	-5.188750
27.511000	-49.410000	1093.912964	7.109375	-6.370000	-3.801875
55.144001	-78.445999	1117.458984	5.162500	-4.046875	-5.416250
23.790001	-253.150009	1112.518066	-0.030625	-3.696875	0.586250
137.067001	-491.355011	1181.509033	8.579375	-8.688750	5.162500
50.202999	-509.716003	1092.448975	18.147499	1.400000	6.422500
17.690001	-536.494995	1031.021973	9.213750	9.266250	17.281250
127.612000	-515.267029	1037.061035	9.135000	0.170625	33.040001
19.520000	-416.080994	1020.773987	13.671875	-10.473750	25.716249
264.739990	-449.447998	1082.505981	12.394375	-24.565624	33.718124
235.460007	-237.412003	1094.462036	16.918125	-16.240000	47.258751
334.097015	-249.794998	1236.226074	7.590625	-27.807501	49.568748
375.699005	-54.716999	1231.589966	-0.630000	-21.743750	60.615623
315.003998	16.409000	1214.875977	14.791875	7.953750	62.715626
378.444000	55.449001	1271.605957	7.914375	7.542500	62.129375
396.195007	304.390015	1178.885986	-18.186874	-0.892500	47.201874
278.953003	285.601990	1131.306030	-4.291875	5.464375	33.998123
271.877014	389.302002	1110.505005	1.400000	14.958125	17.465000
115.290001	551.257019	1047.614014	-13.291250	6.431250	33.285000
220.697998	356.057007	997.716003	-4.847500	15.946875	46.764374
7.137000	248.514008	997.228027	-8.260000	35.616875	43.106876
-15.677000	298.960999	1080.249023	-15.745625	32.151875	35.030624
50.813000	315.248016	1024.739014	5.836250	3.723125	17.570000
-141.581009	240.156998	1090.984985	20.457500	-16.480625	2.428125
100.467003	428.951996	1147.531982	20.768126	-35.651875	-8.474375
8.418000	191.296005	992.104004	6.339375	-16.821875	6.750625
33.367001	213.805008	1155.766968	-0.354375	4.436250	-6.002500
-53.985001	34.098999	1142.651978	6.698125	-6.820625	-4.208750
40.504002	7.869000	1142.651978	6.431250	-13.011250	-1.990625
111.569000	38.917999	1195.661011	15.680000	-18.038124	-4.265625
122.122002	-0.305000	1185.169067	18.541250	-10.933125	0.166250
136.762009	36.904999	1163.941040	3.574375	8.561875	3.679375
171.959000	41.541000	1156.864990	6.523125	7.446250	-1.321250
111.508003	53.680000	1128.011963	1.246875	4.453750	-8.181250
28.853001	15.555000	1111.297974	-4.886875	8.964375	-6.881875
56.181000	-41.358002	1129.719971	-1.089375	-8.255625	1.946875
33.733002	-26.596001	1116.177979	-1.159375	-1.487500	0.770000
59.048000	-53.253002	1109.895020	1.015000	-0.476875	0.765625
41.968002	12.749001	1108.004028	1.207500	-0.866250	0.284375
60.451000	-25.559000	1118.191040	0.240625	-2.970625	1.019375
64.843002	-54.778000	1131.306030	-1.868125	-2.410625	-1.356250
45.383999	-141.824997	1127.768066	-1.763125	-1.439375	-1.841875
88.328003	-254.858002	1114.348022	1.767500	-4.480000	-5.398750
44.957001	-397.597992	1081.895996	-0.590625	0.074375	-3.679375
66.184998	-501.968994	1059.143066	1.811250	-5.385625	0.249375
20.496000	-391.498016	1034.010986	6.212500	-8.417500	-5.678750
97.722000	-442.615997	1005.707031	5.910625	-5.643750	3.771250
200.445999	-274.988007	1068.842041	-0.030625	-18.501875	9.231250
157.563004	-360.692993	1060.973022	-3.946250	-11.716250	13.671875
178.912994	-240.828003	1088.239990	4.641875	-6.033125	21.844376
311.527008	-275.476013	1126.120972	15.570625	-18.064375	25.278749
223.320999	-131.333008	1084.396973	21.087500	-12.158125	31.106251
227.469009	26.535000	1103.307007	11.270000	10.325000	41.553749
162.138000	51.300999	1187.243042	-5.735625	1.448125	60.270000
203.374008	196.115005	1212.009033	1.894375	-16.664375	61.311249
115.350998	204.654999	1139.541016	-2.467500	-25.571875	50.461250
241.926010	234.850006	1174.067017	-7.643125	-22.417500	55.234375
213.682999	189.344009	1131.367065	-3.338125	-11.554375	55.698124
122.122002	201.421997	1165.405029	-7.503125	-6.160000	52.823750
256.505005	178.181000	1142.224976	-2.655625	-4.886875	46.151875
158.722000	130.173996	1091.046021	6.488125	3.045000	29.723749
98.332001	196.481003	1084.763062	4.379375	5.131875	26.442499
198.067001	102.358002	1062.315063	8.951250	-0.958125	23.008125
85.278000	147.986008	1089.093994	12.958750	0.638750	18.991875
152.317001	159.087997	1091.473022	8.443750	3.648750	10.762500
191.479004	188.856003	1197.674072	9.240000	-4.624375	1.260000
145.546005	151.462997	1146.556030	9.883125	-1.605625	4.326875
151.951004	116.144005	1165.526978	4.278750	4.375000	7.949375
93.878998	89.609001	1124.412964	1.596875	6.483750	7.651875
85.460999	39.771999	1132.587036	2.275000	1.666875	9.012500
74.114998	46.299000	1125.755005	7.695625	0.857500	3.793125
51.910999	14.030000	1113.555054	6.501250	0.949375	-0.223125
142.251999	52.643002	1116.848999	-0.271250	-4.843125	-0.686875
91.682999	-193.736008	1092.631958	-3.154375	-4.641875	-4.243750
33.000999	-94.123001	1115.994995	-0.914375	-1.470000	-6.015625
94.916000	-152.682999	1133.014038	-4.274375	-0.542500	-6.615000
86.681000	-138.104004	1107.821045	-7.770000	3.206875	-1.448125
90.584999	-148.046997	1100.989014	-0.848750	7.179375	1.483125
65.819000	-185.744995	1083.969971	3.132500	2.384375	1.789375
137.798996	-266.692017	1121.850952	4.449375	-9.305625	0.056875
128.283005	-352.763000	1058.472046	1.846250	-6.453125	-0.214375
154.818008	-463.112000	1046.821045	1.846250	2.371250	9.970625
163.175003	-399.428009	1027.849976	-4.711875	2.371250	7.993125
116.265999	-303.963013	1026.020020	0.708750	-0.468125	7.993125
116.265999	-303.963013	1066.097046	9.800000	-1.566250	7.800625
243.572998	-268.095001	1066.097046	8.863750	-13.396250	20.763750
121.267998	-133.223999	1094.583984	4.738125	-21.647499	23.786875
189.039001	-151.402008	1111.297974	1.890000	-25.939375	26.411875
191.845001	-65.941002	1107.881958	4.672500	-19.630625	34.623749
218.257996	-81.374001	1148.447021	1.325625	-13.601875	31.311874
191.600998	-19.642000	1111.359009	5.985000	-14.704375	35.446251
241.011002	-10.309000	1100.623047	7.844375	-9.765000	36.216251
171.837006	-24.644001	1114.958008	6.912500	-7.647500	33.022499
189.770996	4.636000	1090.984985	6.216875	-8.395625	35.520626
253.882004	-15.128000	1103.612061	9.060625	-0.126875	30.734375
112.849998	-4.148000	1102.758057	9.051875	-2.191875	33.131874
266.692017	-21.228001	1106.234985	5.586875	-8.990625	34.199375
214.903000	-43.859001	1136.430054	4.278750	-6.072500	33.245625
227.652008	10.797000	1139.419067	0.166250	-7.791875	27.890625
232.471008	-20.618000	1128.682983	2.222500	-6.536250	22.789375
144.264999	8.662000	1130.817993	-3.447500	0.109375	22.260000
162.138000	-40.748001	1120.997070	-10.434375	-3.097500	29.504999
125.355003	-140.483002	1160.890991	-2.073750	-15.780625	37.747501
313.967010	-13.115000	1117.458984	2.620625	-11.917500	11.528125
261.385010	46.604000	1069.452026	-1.697500	0.087500	5.206250
244.365997	57.096001	1113.128052	0.669375	12.136250	-2.913750
138.653000	70.272003	1097.634033	4.383750	17.311874	-3.828125
187.270004	106.932999	1123.071045	2.108750	12.862500	5.403125
129.259003	89.426003	1103.489990	2.222500	7.800625	7.931875
151.951004	56.364002	1112.945068	7.411250	3.447500	5.740000
135.054001	49.593002	1097.511963	8.185625	0.083125	5.547500
217.221008	-75.884003	1101.537964	1.732500	-1.903125	-0.297500
194.406998	-96.624001	1087.141968	0.791875	0.800625	-1.732500
212.219009	-109.678001	1080.614990	-0.844375	0.078750	-4.633125
182.268005	-122.182999	1065.547974	-0.420000	-3.858750	-2.113125
171.714996	-106.017998	1072.807007	0.446250	-3.867500	-2.305625
210.511002	-145.363007	1084.213989	0.385000	-5.866875	0.813750
181.048004	-216.244995	1084.823975	3.373125	-6.133750	2.025625
218.441010	-363.864990	1089.032959	10.570000	-3.530625	-3.062500
250.832001	-489.830017	1056.764038	12.971875	2.485000	-2.905000
173.972000	-537.410034	996.862000	18.663750	1.833125	1.050000
203.862000	-544.059021	984.234985	14.511875	1.220625	-0.433125
242.475006	-479.582001	936.716003	5.083750	-5.652500	14.000000
246.867004	-474.031006	963.799988	-0.131250	-10.355625	15.246875
280.050995	-369.782013	1020.468994	2.314375	-7.564375	16.747499
300.303009	-300.546997	975.390015	-4.882500	-26.871250	26.022499
322.628998	-164.578003	954.345032	-6.230000	-38.871876	28.594999
337.940002	-161.100998	999.057983	-3.504375	-20.698126	40.831875
551.074036	-166.591003	1155.950073	1.111250	-12.569375	46.939377
383.628998	-27.205999	1117.581055	0.984375	-21.174999	48.798752
431.880005	4.148000	1220.915039	0.218750	-12.998125	53.423126
317.748993	98.454002	1303.386963	-2.393125	-0.826875	54.162498
509.654999	267.424011	1302.838013	1.071875	7.446250	56.262501
332.144989	267.424011	1221.098022	24.355625	0.363125	75.775002
291.763000	228.811005	1204.505981	50.334373	4.055625	73.154373
231.921997	281.149017	1086.837036	65.778122	22.067499	50.933750
108.945999	339.037994	1065.730957	58.318748	22.780624	46.633125
226.249008	249.794998	1104.526978	46.431873	17.053749	40.376877
159.210007	184.585999	1027.728027	30.905001	12.171250	30.926874
227.712997	159.149002	1123.558960	22.461250	4.926250	21.787500
165.675995	114.680000	1063.108032	25.151875	0.962500	11.305000
163.236008	89.853004	1111.420044	20.916876	0.826875	10.150000
195.932007	65.331001	1158.145996	24.119375	-1.019375	0.940625
133.223999	15.616000	1140.333984	25.064375	2.218125	-0.805000
152.682999	60.268002	1138.625977	24.998751	-2.791250	-4.698750
137.371994	62.341999	1104.832031	32.361874	-13.881875	-4.025000
129.380997	141.520004	1150.582031	40.779373	-13.461875	4.221875
139.018997	173.240005	1054.446045	45.009998	-6.457500	17.097500
297.131012	221.735001	1078.419067	35.730625	-1.465625	12.293750
164.639008	47.275002	1116.360962	-4.086250	0.590625	6.820625
173.423004	54.595001	1092.571045	0.109375	0.533750	9.170000
180.132996	56.730000	1105.930054	3.644375	0.218750	5.285000
195.688004	35.685001	1097.695068	5.175625	-3.482500	0.896875
224.358002	111.141998	1095.682007	1.570625	-9.305625	3.635625
206.302002	-68.625000	1149.666992	3.066875	-0.966875	6.037500
222.283997	-330.985992	1218.230957	12.801250	5.560625	-0.013125
297.679993	-417.179016	1068.902954	23.397499	4.930625	-0.301875
190.563995	-303.718994	1063.962036	23.397499	29.820000	-13.553750
138.591995	-125.598999	1081.530029	49.083126	29.820000	-13.068125
196.908005	-110.043999	1101.964966	55.190624	30.756250	-13.068125
196.908005	-110.043999	1050.176025	41.129375	-6.667500	12.534375
303.414001	-15.006001	1050.176025	29.504999	-24.990000	32.497501
467.076996	-108.335999	1057.557007	18.405624	-8.653750	47.761875
449.692017	51.667000	1027.484009	15.360625	10.688125	47.735626
467.687012	128.710007	1072.380005	10.504375	21.813749	26.779375
306.281006	285.662994	1067.744019	-4.388125	34.571251	19.066250
232.471008	404.917999	1189.500000	-15.662500	19.118750	18.532499
259.860016	440.481018	1170.468018	-16.502501	-3.316250	24.801874
246.440002	573.583008	1086.348999	-16.301250	5.740000	47.267502
230.214005	614.575012	1276.791016	6.991250	13.654375	53.186874
151.158005	445.544006	1011.989990	14.100625	16.073750	70.105003
187.697006	508.252014	1044.686035	4.795000	12.709375	70.608124
233.874008	516.121033	1000.338989	10.933125	5.678750	51.808750
176.595001	559.492004	979.721008	12.976250	10.714375	38.101875
199.897003	638.914001	1018.639038	14.275625	-4.283125	25.309376
156.098999	642.513000	977.403015	12.779375	-6.260625	23.891874
160.247009	576.205994	926.101990	5.446875	8.277500	20.496876
58.621002	391.376007	980.330994	-7.301875	4.816875	17.762501
66.429001	309.514008	1030.473022	-3.815000	-3.053750	17.320625
165.615005	280.600006	1098.305054	8.028125	-12.372500	7.577500
163.113998	227.591003	1176.202026	12.455625	-13.982500	5.105625
240.218002	289.750000	1127.157959	7.446250	-2.900625	3.666250
215.878998	218.319000	1145.031006	4.567500	1.872500	0.538125
217.953003	234.484009	1114.225952	0.030625	1.916250	-5.897500
191.479004	230.701996	1117.947021	-1.566250	1.596875	-7.975625
207.522003	234.667007	1091.107056	-1.246875	-0.389375	-8.474375
173.362000	222.466995	1072.135986	-5.823125	0.603750	-7.826875
