A_X[mg]	A_Y[mg]	A_Z[mg]	G_X[dps]	G_Y[dps]	G_Z[dps]	
18.910000	122.854004	1079.760986	8.999375	-2.751875	3.233125
18.910000	122.854004	1069.635010	-3.893750	-3.832500	3.233125
18.544001	103.334000	1069.635010	-12.271875	-4.265625	4.252500
-11.224000	81.679001	1070.306030	-15.610000	-4.169375	1.986250
-6.893000	90.219002	1094.645020	-13.300000	-10.762500	1.780625
22.691999	94.000999	1111.176025	-11.156250	-10.552500	0.660625
26.535000	94.428001	1127.768066	-11.825625	-13.138125	1.885625
57.096001	101.808998	1134.051025	-11.458125	-13.151250	2.279375
75.701004	84.790001	1125.389038	-7.791875	-9.275000	0.905625
64.355003	91.682999	1128.195068	-8.198750	-6.230000	-1.645000
61.732002	66.917000	1131.489014	-8.618750	-4.396875	-1.583750
64.965004	46.970001	1132.037964	-8.133125	-5.381250	-2.572500
65.879997	28.670000	1126.914062	-4.388125	-1.745625	-1.890000
51.605999	24.034000	1132.953003	0.870625	0.385000	-2.935625
47.945999	27.877001	1129.719971	4.501875	-0.783125	-3.653125
58.804001	32.879002	1099.098022	7.660625	-2.257500	-5.582500
45.811001	28.548000	1103.551025	11.405625	-3.810625	-6.278125
73.321999	53.618999	1104.709961	11.935000	-4.576250	-7.958125
67.771004	65.879997	1130.817993	9.835000	-6.405000	-6.356875
76.067001	76.982002	1159.244019	6.225625	-9.848125	-6.160000
81.434998	68.502998	1158.878052	-0.056875	-8.295000	-4.296250
80.520004	55.815002	1183.338989	-1.911875	-6.737500	-3.653125
82.837997	46.542999	1186.755005	-1.793750	-2.327500	-5.145000
73.504997	64.660004	1192.123047	-1.185625	0.752500	-4.655000
75.945000	54.961002	1180.289062	-1.308125	2.454375	-4.655000
65.574997	50.751999	1165.222046	-2.030000	4.493125	-3.281250
81.496002	39.589001	1156.133057	-1.216250	6.571250	-1.828750
65.148003	33.244999	1138.381958	-1.955625	7.030625	-0.065625
71.065002	30.866001	1135.942017	-1.995000	8.583750	-0.048125
57.827999	13.908000	1126.974976	-1.273125	11.353125	1.001875
51.179001	25.620001	1123.010010	-0.087500	11.291875	1.233750
50.996002	21.960001	1113.067017	-1.176875	9.778125	3.259375
47.824001	10.675000	1109.468018	0.586250	10.241875	2.760625
29.646000	19.825001	1094.583984	1.330000	11.077500	3.403750
33.733002	29.219000	1101.110962	0.682500	6.724375	5.442500
28.792000	25.742001	1088.545044	2.454375	6.256250	3.893750
18.605000	28.609001	1080.370972	4.519375	3.622500	3.526250
13.481000	40.504002	1093.364014	7.717500	-0.577500	5.302500
15.921000	42.090000	1072.928955	8.715000	-3.040625	8.185625
3.233000	66.429001	1079.883057	4.038125	1.155000	8.461250
-3.843000	47.091999	1100.379028	-2.839375	0.376250	6.593125
6.161000	43.431999	1106.967041	-6.685000	-0.297500	4.427500
-10.980000	45.932999	1099.281006	-3.841250	-0.813750	0.560000
-0.854000	63.684002	1123.315063	0.319375	-5.162500	-0.735000
26.230000	56.424999	1099.159058	1.715000	-7.424375	1.400000
38.674000	50.325001	1118.312988	1.741250	-6.881875	2.428125
49.166000	46.726002	1112.334961	2.607500	-4.440625	2.410625
13.054000	71.796997	1108.125977	3.570000	-1.999375	-0.840000
28.182001	84.545998	1117.581055	3.333750	-3.683750	-1.417500
53.253002	66.246002	1100.562012	3.486875	-4.178125	-0.039375
54.900002	72.528999	1105.136963	4.287500	-5.670000	-2.275000
72.346001	94.367004	1108.065063	4.838750	-11.550000	-5.985000
71.370003	76.006004	1124.473999	-0.061250	-9.695000	-6.763750
37.088001	78.202003	1131.123047	-4.952500	-4.427500	-9.025625
16.409000	71.187004	1147.410034	-5.446875	-3.023125	-8.050000
48.678001	70.882004	1143.872070	-2.073750	-6.015625	-8.076250
53.253002	74.359001	1127.524048	0.341250	-2.935625	-8.032500
44.347000	83.875000	1127.890015	1.785000	-2.625000	-8.820000
52.887001	75.945000	1126.303955	1.098125	-3.189375	-9.126250
56.791000	84.240997	1125.328003	-1.417500	-1.715000	-8.876875
78.263000	81.129997	1123.619995	-2.970625	-2.642500	-8.448125
67.527000	91.744003	1129.659058	-3.071250	-1.303750	-6.278125
72.041000	78.750999	1138.442993	-2.485000	-0.148750	-4.033750
62.890999	94.062004	1143.078979	1.465625	-0.258125	-3.941875
63.195999	110.653999	1134.661011	1.618750	0.660625	-4.147500
57.157001	107.970001	1136.063965	1.382500	4.060000	-2.594375
52.459999	118.035004	1125.145020	1.421875	4.764375	-2.585625
64.293999	89.059998	1119.838013	-0.896875	2.660000	-0.586250
57.522999	83.936005	1125.633057	0.910000	2.283750	-1.426250
54.167999	77.042999	1117.825073	4.375000	2.086875	-2.305625
38.917999	83.509003	1105.869019	4.738125	2.476250	-2.021250
20.618000	92.415001	1090.680054	1.124375	0.328125	-2.021250
38.186001	80.336998	1103.489990	-4.633125	-4.287500	0.284375
51.118000	54.229000	1112.822998	-2.957500	-2.620625	-2.660000
38.247002	50.874001	1114.836060	2.375625	-0.761250	-2.769375
56.181000	68.564003	1123.681030	4.033750	-3.920000	-1.041250
69.174004	76.189003	1120.570068	3.465000	-2.423750	-1.006250
60.451000	82.899002	1125.510986	0.966875	0.000000	-0.437500
47.640999	73.993004	1114.531006	-1.780625	0.192500	-0.708750
36.904999	97.539001	1124.473999	-6.816250	-0.450625	-0.962500
62.890999	45.323002	1128.682983	-8.995000	-4.261250	2.012500
90.279999	23.973000	1117.947021	-3.893750	-3.902500	-0.708750
79.238998	5.124000	1124.901001	-1.658125	0.301875	-0.315000
74.907997	-30.866001	1114.775024	-0.669375	1.163750	0.074375
61.915001	-37.027000	1109.041016	1.325625	2.410625	0.813750
39.833000	-38.307999	1117.581055	1.233750	1.378125	2.358125
61.549000	-50.447002	1112.761963	1.050000	-1.596875	1.277500
56.486000	-39.406002	1111.664062	1.207500	-1.995000	0.083125
38.796001	-3.721000	1124.352051	1.776250	-2.511250	-0.927500
57.157001	-11.285000	1121.790039	-0.695625	-2.366875	2.030000
49.348999	-4.819000	1127.341064	-0.227500	-1.260000	1.850625
63.440002	7.808000	1123.131958	0.490000	-2.213750	0.831250
54.961002	6.954000	1124.839966	-0.275625	-2.034375	1.430625
54.778000	16.409000	1121.424072	-1.793750	-1.146250	-0.306250
30.439001	19.337000	1120.570068	-2.918125	1.141875	-1.216250
30.743999	16.226000	1120.813965	-2.948750	0.175000	-0.980000
57.218002	5.917000	1121.302002	-2.550625	-0.371875	-2.314375
67.832001	7.564000	1120.813965	-2.550625	0.875000	-2.817500
75.701004	-0.549000	1134.478027	-4.935000	0.875000	-2.817500
75.701004	-0.549000	1129.842041	-5.407500	-0.280000	-5.254375
80.093002	-3.416000	1129.842041	-4.908750	-0.363125	-8.911875
65.391998	8.296000	1129.842041	-6.636875	-1.522500	-9.165625
57.645000	13.359000	1126.182007	-4.987500	1.036875	-8.898750
33.123001	37.271000	1119.166992	0.455000	4.147500	-6.531875
41.174999	34.892002	1111.968994	4.515000	3.465000	-5.197500
27.205999	40.199001	1103.795044	5.442500	1.728125	-7.271250
51.300999	43.737000	1108.552979	5.407500	0.371875	-9.187500
49.166000	49.715000	1115.140991	4.103750	0.923125	-8.610000
46.237999	39.833000	1106.113037	2.480625	-0.682500	-7.437500
56.059002	43.980999	1115.019043	2.975000	-0.240625	-7.398125
46.786999	43.920002	1119.289062	5.145000	0.008750	-5.446875
48.190002	59.048000	1120.447998	6.562500	-0.892500	-7.437500
40.931000	67.404999	1127.341064	1.662500	-3.727500	-5.289375
57.950001	58.376999	1139.968018	1.693125	-4.046875	-5.188750
59.414001	48.617001	1114.652954	1.701875	2.703750	-5.985000
42.212002	35.624001	1125.572021	1.185625	2.887500	-3.049375
62.281002	45.506001	1114.286987	4.130000	1.798125	-4.239375
37.393002	65.453003	1104.039062	5.853750	4.930625	-0.949375
22.570000	59.597000	1103.734009	6.991250	2.480625	0.984375
37.332001	61.732002	1098.182983	6.895000	1.491875	1.491875
40.077000	61.976002	1115.567993	8.443750	0.280000	6.593125
42.212002	97.051003	1141.797974	8.098125	-2.660000	9.625000
53.802002	54.839001	1151.619019	2.362500	-1.408750	9.616250
46.542999	25.498001	1141.126953	-2.375625	0.109375	-2.121875
9.699000	74.542000	1123.131958	0.157500	-1.999375	-8.977500
-0.793000	142.923004	1105.686035	5.433750	-0.087500	-9.572500
22.631001	130.723007	1101.904053	3.565625	1.225000	-0.573125
20.984001	139.507004	1117.885986	-2.025625	0.551250	6.448750
49.897999	108.092003	1123.192993	-1.710625	-0.980000	11.248125
52.521000	85.339005	1128.682983	3.841250	-3.360000	13.475000
44.957001	92.049004	1114.958008	6.860000	-0.048125	10.530625
41.358002	112.667000	1121.240967	6.085625	0.966875	11.571875
23.058001	105.591003	1111.968994	2.576875	-0.179375	10.867500
35.136002	83.142998	1115.629028	0.380625	-0.262500	10.806250
57.889000	66.246002	1120.509033	-0.463750	-1.846250	11.493125
57.340000	38.612999	1117.398071	-3.482500	-3.228750	8.080625
83.326004	36.234001	1121.729004	-3.867500	-3.609375	4.396875
56.424999	38.307999	1125.755005	-4.891250	-1.907500	4.799375
56.852001	17.385000	1116.727051	-3.513125	-3.850000	1.194375
47.396999	17.568001	1131.062012	-3.071250	-5.831875	-1.198750
65.574997	33.549999	1149.301025	-0.354375	-8.837500	-3.836875
82.106003	17.323999	1143.872070	1.850625	-7.350000	-6.693750
55.570999	40.320999	1150.643066	-3.027500	-0.078750	-6.400625
89.974998	24.766001	1177.787964	-3.924375	1.505000	-5.661250
66.306999	51.240002	1134.539062	-3.447500	5.836250	-7.336875
63.562000	38.368999	1099.219971	-12.827500	10.311875	-12.267500
67.892998	1.037000	1104.893066	-13.339375	5.105625	-12.630625
42.882999	6.039000	1077.442993	-4.248125	0.113750	-12.919375
49.837002	41.785000	1058.228027	1.369375	-3.928750	-10.749375
65.879997	57.827999	1058.349976	3.609375	-2.996875	-7.586250
64.293999	58.926003	1086.531982	1.701875	1.198750	-9.248750
28.182001	45.445000	1119.716064	-2.248750	0.043750	-12.595625
13.298000	64.355003	1143.322998	-0.691250	-4.637500	-16.117500
17.385000	30.500000	1165.039062	-0.726250	-7.035000	-9.664375
37.027000	11.224000	1167.661987	1.041250	-6.978125	-1.789375
69.417999	6.954000	1169.796997	3.220000	-7.201250	-2.388750
86.620003	31.537001	1125.937988	3.692500	0.406875	-4.733750
62.159000	50.569000	1117.093018	0.542500	6.860000	-8.404375
57.950001	16.958000	1114.713989	-6.330625	5.543125	-5.180000
46.542999	18.666000	1115.690063	-3.311875	4.786250	-4.480000
30.743999	3.416000	1115.567993	3.788750	3.395000	-4.611250
33.367001	21.777000	1123.437012	5.814375	-0.761250	-3.005625
39.466999	18.910000	1129.049072	6.330625	-2.275000	-3.513125
61.915001	32.574001	1130.940063	7.678125	-1.233750	-2.305625
56.242001	40.687000	1117.581055	6.286875	1.443750	-1.540000
55.632000	44.347000	1105.747070	4.427500	1.439375	-0.717500
56.364002	68.625000	1103.245972	1.999375	2.161250	-0.678125
40.382000	43.493000	1090.863037	-1.006250	3.670625	0.673750
17.141001	48.617001	1091.777954	-0.573125	0.105000	0.004375
36.904999	42.028999	1109.468018	-0.301875	-2.808750	1.500625
33.306000	42.944000	1098.549072	0.153125	-2.594375	1.461250
22.387001	45.567001	1107.211060	-2.865625	-3.696875	2.555000
54.778000	40.077000	1113.555054	-1.693125	-5.884375	3.215625
50.874001	44.591000	1111.420044	1.990625	-4.882500	1.592500
54.961002	75.396004	1117.214966	1.614375	-5.481875	0.345625
49.348999	87.840004	1115.202026	0.752500	-5.070625	-0.210000
57.889000	76.799004	1119.289062	0.717500	-4.637500	-1.548750
48.373001	69.967003	1130.573975	0.004375	-6.041875	-0.638750
65.026001	64.233002	1133.014038	0.555625	-5.766250	-2.327500
67.892998	61.366001	1131.916016	0.525000	-3.906875	-3.618125
69.295998	67.527000	1144.482056	-0.144375	-3.766875	-4.685625
83.936005	54.046001	1135.636963	0.748125	-2.865625	-6.352500
71.918999	62.037003	1135.209961	1.041250	-1.754375	-6.951875
83.692001	60.633999	1128.438965	0.783125	-0.691250	-6.409375
72.895004	48.129002	1132.464966	0.660625	0.660625	-5.258750
74.419998	41.297001	1126.853027	-1.045625	0.157500	-5.499375
75.152000	24.156000	1121.790039	0.000000	0.420000	-5.407500
82.654999	40.504002	1125.510986	1.487500	0.490000	-7.266875
87.168999	44.834999	1111.541992	1.544375	1.124375	-6.829375
77.042999	47.763000	1113.677002	1.890000	1.404375	-4.895625
76.250000	47.945999	1108.675049	0.923125	1.785000	-5.026875
65.819000	45.139999	1102.208984	2.183125	0.192500	-5.687500
72.163002	60.756001	1117.398071	2.196250	-0.389375	-3.788750
71.858002	51.789001	1101.050049	3.115000	2.314375	-3.193750
59.841000	49.166000	1112.030029	3.128125	1.470000	-1.706250
67.404999	47.336002	1113.250000	2.401875	-2.874375	-1.395625
65.514000	45.139999	1113.372070	1.312500	-3.202500	-1.815625
64.538002	33.611000	1125.816040	2.616250	-3.443125	-0.511875
70.943001	50.142002	1126.791992	2.616250	-5.481875	-0.638750
70.150002	49.897999	1127.645996	4.873750	-5.481875	-0.638750
70.150002	49.897999	1137.467041	4.090625	-4.025000	0.966875
71.370003	49.043999	1137.467041	3.377500	-1.540000	1.688750
72.101997	58.865002	1114.042969	4.506250	0.682500	2.060625
52.459999	75.029999	1146.433960	3.819375	0.170625	3.338125
72.041000	78.873001	1145.702026	4.042500	-3.762500	4.143125
86.863998	103.151001	1134.172974	5.831875	-2.323125	3.062500
81.618004	118.218002	1133.258057	1.833125	0.192500	2.708125
85.948997	95.465004	1111.359009	0.319375	4.226250	4.484375
70.882004	92.964005	1116.239014	2.073750	5.845000	3.486875
62.037003	97.294998	1106.723022	2.572500	2.235625	2.839375
74.542000	91.927002	1116.360962	4.086250	1.986250	4.436250
55.510002	96.075005	1124.656982	5.188750	1.426250	5.858125
66.612000	72.528999	1130.635010	4.965625	0.647500	8.435000
67.709999	88.450005	1115.812012	3.845625	3.731875	8.553125
66.734001	71.370003	1122.583008	3.010000	2.397500	9.821875
76.432999	79.117004	1113.555054	2.095625	0.883750	10.911250
75.152000	98.514999	1105.380981	1.907500	3.416875	8.181250
63.257000	80.886002	1108.431030	3.001250	5.048750	8.225000
58.926003	96.258003	1114.286987	1.583750	2.003750	9.038750
60.146000	86.193001	1110.932007	2.082500	2.003750	8.710625
50.447002	109.128998	1109.223999	0.953750	0.030625	9.918125
60.207001	87.778999	1106.661987	-3.692500	-2.843750	11.388125
60.512001	55.875999	1088.484009	-3.206875	0.787500	10.758125
49.227001	49.105000	1114.286987	-0.971250	-0.971250	10.255000
71.796997	47.945999	1120.143066	2.375625	-2.988125	6.938750
75.822998	60.512001	1111.968994	0.988750	1.246875	3.688125
40.748001	60.146000	1140.822021	-4.808125	-3.255000	1.820000
48.373001	36.539001	1141.797974	-6.216875	-6.982500	-3.080000
31.476000	41.418999	1148.812988	-7.078750	-4.235000	-6.781250
39.345001	52.459999	1152.594971	-3.556875	-4.335625	-9.988125
50.020000	63.928001	1137.894043	-0.113750	-1.566250	-12.092500
61.976002	49.043999	1110.139038	-3.381875	2.782500	-7.035000
61.366001	20.313000	1097.938965	-5.810000	5.683125	-6.759375
44.042000	6.466000	1084.336060	-6.365625	8.102500	-8.697500
46.360001	-3.233000	1103.307007	-7.809375	2.056250	-15.474375
73.688004	14.945000	1116.666016	-11.318125	-8.439375	-18.580626
84.912003	8.235000	1107.454956	-9.336250	-8.106875	-17.259375
59.230999	38.917999	1100.256958	-2.113125	-0.643125	-12.538750
50.202999	35.380001	1108.431030	3.320625	1.176875	-7.398125
56.303001	60.817001	1112.213013	6.133750	-4.742500	-10.150000
55.998001	78.507004	1105.503052	1.955625	-5.394375	-12.075000
54.290001	45.262001	1125.510986	-0.656250	-5.757500	-8.120000
67.222000	22.875000	1111.297974	0.555625	-5.954375	-3.653125
76.799004	22.570000	1125.572021	2.196250	-4.506250	0.875000
71.065002	50.507999	1129.536987	3.806250	-2.891875	1.417500
71.613998	63.074001	1122.704956	2.467500	-2.393125	0.586250
77.653000	72.773003	1124.596069	0.861875	-2.677500	-0.301875
95.281998	95.709000	1135.332031	-1.089375	-5.429375	-0.144375
119.133003	70.333000	1137.833008	-2.393125	-3.679375	-0.756875
89.304001	81.008003	1131.000977	0.573125	1.255625	-2.721250
77.042999	93.452003	1131.550049	2.835000	1.308125	-3.193750
98.027000	76.615997	1118.251953	3.465000	0.857500	-3.386250
89.974998	63.318001	1116.056030	3.447500	1.846250	-2.253125
89.304001	52.033001	1118.008057	2.292500	0.971250	-2.905000
103.700005	56.791000	1119.105957	2.502500	-0.455000	-3.132500
77.897003	59.353001	1120.326050	3.150000	2.226875	-3.031875
85.095001	61.000000	1118.251953	3.924375	1.671250	-4.011875
98.454002	59.779999	1121.729004	6.405000	4.900000	-4.449375
83.447998	67.527000	1119.105957	10.066875	7.962500	-2.738750
45.079002	112.362000	1121.302002	8.172500	6.606250	-1.684375
48.129002	105.834999	1117.520020	-0.253750	-2.804375	0.586250
54.229000	76.372002	1115.323975	-4.007500	-4.663750	2.738750
55.998001	52.887001	1125.450073	-0.848750	-3.250625	2.266250
74.603004	59.475002	1107.760010	0.647500	-2.528750	2.769375
82.411003	48.129002	1098.305054	-0.048125	1.137500	3.889375
78.812004	38.125000	1112.274048	3.618125	5.075000	0.914375
45.383999	73.626999	1096.414062	1.911875	1.290625	-0.577500
55.875999	84.790001	1100.013062	-4.698750	-5.705000	4.287500
73.566002	89.731003	1132.281982	-7.472500	-8.771875	3.924375
117.852005	60.268002	1123.558960	-6.855625	-5.888750	3.920000
95.098999	50.813000	1146.617065	-3.928750	-1.570625	2.016875
78.933998	48.190002	1139.662964	0.647500	4.663750	-1.028125
51.545002	55.815002	1126.974976	2.165625	8.067500	0.774375
25.925001	52.459999	1126.547974	-1.242500	1.478750	2.957500
57.827999	41.297001	1118.312988	-4.519375	-6.759375	2.502500
78.140999	38.430000	1101.660034	-7.310625	-9.205000	2.445625
91.134003	23.546000	1104.893066	-6.895000	-8.216250	0.835625
102.113998	23.912001	1113.188965	-0.398125	-4.497500	-2.568125
82.472000	46.421001	1101.964966	4.716250	-0.070000	-4.676875
93.330002	79.361000	1138.442993	1.841875	-0.756875	-4.265625
124.562004	38.003002	1110.993042	2.069375	-1.006250	-3.421250
93.573997	61.671001	1125.693970	3.211250	-1.911875	-2.725625
97.173004	46.970001	1112.518066	2.485000	0.161875	-0.717500
66.612000	41.418999	1122.888062	1.999375	1.365000	-0.704375
64.293999	27.938000	1132.953003	3.867500	-0.826875	-3.141250
79.178001	56.730000	1125.633057	4.926250	1.071875	-4.121250
91.134003	72.468002	1144.299072	3.600625	1.268750	-3.136875
102.480003	69.417999	1122.217041	4.370625	0.770000	-4.388125
96.441002	79.666000	1114.531006	1.697500	2.480625	-4.213125
85.460999	68.014999	1106.234985	0.498750	1.802500	-3.788750
66.612000	66.856003	1106.174072	-0.122500	0.953750	-3.937500
59.597000	53.192001	1105.076050	0.122500	-1.216250	-2.520000
60.756001	57.401001	1107.942993	1.194375	-1.290625	-2.760625
75.152000	46.786999	1119.959961	3.163125	-2.143750	-1.640625
77.775002	74.176003	1128.805054	5.530000	-3.661875	-4.200000
94.062004	62.159000	1123.192993	5.530000	-3.661875	-2.183125
103.273003	45.018002	1111.968994	1.828750	-2.498125	-2.183125
103.273003	45.018002	1111.968994	0.708750	-0.647500	-0.774375
79.483002	35.075001	1102.331055	1.155000	-0.686875	-1.181250
98.271004	50.751999	1097.268066	2.568125	-1.207500	0.100625
50.264000	62.830002	1100.623047	2.187500	1.986250	-0.533750
60.268002	49.593002	1116.177979	2.975000	-1.763125	1.767500
94.367004	63.318001	1121.240967	4.523750	-6.663125	1.579375
97.051003	61.976002	1121.302002	3.106250	-4.777500	3.552500
80.398003	57.584000	1153.388062	2.957500	-3.364375	5.276250
83.509003	52.033001	1140.700073	3.793125	-2.051875	4.847500
96.868004	47.945999	1130.879028	4.764375	-0.743750	5.906250
103.516998	66.551003	1133.318970	5.053125	0.638750	4.501875
97.966003	72.163002	1115.323975	2.611875	1.715000	5.433750
81.618004	64.111000	1115.202026	-0.323750	3.176250	6.951875
84.240997	41.663002	1113.494019	-1.701875	1.640625	6.733125
68.197998	48.983002	1118.312988	-2.003750	0.052500	6.383125
92.170998	55.815002	1129.354004	-1.404375	-1.977500	6.321875
106.627998	44.103001	1132.708984	2.078125	-1.890000	5.687500
102.480003	66.551003	1123.192993	2.616250	0.446250	4.930625
106.932999	51.850002	1108.614014	-1.207500	2.432500	6.094375
85.948997	52.094002	1106.296021	-1.907500	2.926875	3.526250
89.243004	56.059002	1105.320068	-3.185000	0.402500	3.154375
88.206001	63.013000	1104.588013	-1.933750	0.669375	1.929375
86.742004	60.024002	1094.523071	-3.504375	-1.898750	0.914375
79.605003	45.872002	1101.964966	-4.751250	-2.913750	1.290625
93.208000	53.253002	1112.518066	-2.957500	-5.057500	-1.093750
102.785004	32.879002	1119.411011	-2.406250	-6.759375	-0.192500
96.319000	48.190002	1132.404053	-3.224375	-4.528125	0.599375
98.759003	25.925001	1131.671997	-1.478750	-1.255625	-0.078750
86.010002	43.310001	1132.891968	-0.708750	-1.238125	-2.966250
106.445000	40.504002	1121.729004	-2.253125	-1.802500	-1.824375
102.236000	44.713001	1125.876953	1.050000	-0.271250	-2.261875
92.780998	52.643002	1109.468018	1.771875	0.218750	-2.191875
89.181999	49.897999	1106.052002	0.236250	-1.872500	0.161875
103.211998	23.485001	1105.930054	2.108750	-5.136250	0.354375
121.695000	40.260002	1099.890991	5.648125	-4.081875	-2.900625
90.767998	73.321999	1110.687988	3.329375	-2.874375	-3.478125
110.593002	67.771004	1116.971069	1.150625	-4.536875	-1.990625
102.541000	71.065002	1125.755005	-0.245000	-2.069375	-3.578750
107.665001	58.132999	1130.269043	-1.802500	-2.021250	-1.680000
111.569000	64.476997	1127.768066	0.822500	-1.920625	-3.101875
113.826004	63.440002	1124.718018	0.778750	-1.478750	-2.008125
117.425003	58.681999	1113.188965	0.936250	-0.625625	-0.056875
114.314003	53.192001	1098.488037	1.242500	-0.411250	-1.338750
110.166000	38.674000	1107.088989	-1.671250	-1.045625	0.341250
112.911003	43.737000	1111.480957	-0.170625	-2.178750	-0.389375
106.567001	49.593002	1115.873047	2.432500	-2.275000	-0.896875
123.585999	61.854000	1118.922974	2.244375	-2.183125	0.577500
127.551003	56.608002	1117.641968	1.570625	-1.903125	1.251250
116.205002	46.299000	1112.701050	2.642500	-1.474375	1.295000
114.070000	60.512001	1112.395996	2.476250	-2.100000	0.336875
114.070000	63.013000	1116.483032	1.439375	-1.470000	1.290625
112.849998	66.184998	1117.641968	0.700000	-2.073750	0.800625
127.246002	62.586002	1114.104004	-0.476875	-2.800000	0.971250
131.333008	64.843002	1117.093018	0.175000	-2.318750	-0.888125
137.311005	71.065002	1122.461060	-1.076250	-2.441250	-2.030000
125.111000	71.125999	1109.773071	-2.695000	-0.770000	-2.415000
120.414001	51.972000	1116.971069	-3.622500	-1.688750	-0.774375
137.128006	46.421001	1110.383057	-2.843750	-1.163750	-0.616875
129.503006	44.285999	1114.165039	-1.181250	-0.468125	-2.563750
133.651001	72.590004	1111.541992	0.730625	-2.248750	-3.421250
134.444000	70.882004	1113.128052	-0.144375	-1.076250	-2.353750
138.408997	61.305000	1119.411011	-1.758750	-0.616875	-1.316875
123.220001	64.965004	1114.348022	-0.411250	0.000000	-2.918125
124.074005	63.562000	1122.827026	0.612500	-1.610000	-2.480625
135.542007	74.419998	1128.195068	-0.433125	-1.470000	-3.574375
121.877998	61.183002	1125.328003	-0.406875	0.087500	-2.699375
123.098000	65.331001	1127.524048	1.719375	0.026250	-3.049375
135.542007	75.212997	1121.240967	2.051875	0.778750	-3.329375
125.721001	68.259003	1122.521973	3.176250	1.680000	-3.613750
112.118004	74.114998	1119.716064	2.222500	1.920625	-4.134375
113.704002	54.656002	1109.773071	2.047500	1.964375	-2.835000
118.035004	56.242001	1113.067017	2.524375	0.516250	-2.537500
116.753998	39.040001	1109.589966	3.753750	1.321250	-1.876875
116.998001	57.889000	1109.346069	4.510625	0.415625	-0.875000
117.120003	51.910999	1113.188965	4.545625	0.914375	-0.490000
104.981003	62.098000	1111.297974	2.730000	1.185625	-1.316875
109.128998	55.815002	1115.629028	1.369375	-0.595000	-2.065000
103.516998	46.542999	1110.810059	2.397500	-1.430625	-2.235625
109.983002	66.184998	1117.703003	1.159375	-1.631875	-1.553125
113.887001	51.118000	1118.251953	1.513750	-0.061250	0.463750
108.458000	55.937000	1122.583008	2.016875	-1.623125	1.207500
123.464005	50.202999	1114.896973	2.148125	-0.966875	2.415000
102.846001	49.532001	1120.875000	1.977500	0.376250	0.437500
116.388000	50.386002	1116.910034	1.063125	-1.496250	1.850625
106.932999	69.723000	1117.398071	2.065000	0.266875	1.693125
111.446999	57.645000	1113.250000	1.295000	-0.573125	0.848750
122.732002	57.584000	1109.346069	1.080625	-0.109375	1.841875
115.229004	59.414001	1107.881958	1.623125	-0.253750	1.483125
129.076004	53.741001	1112.945068	4.173750	-0.791875	1.487500
118.278999	78.995003	1105.503052	1.741250	-1.286250	1.277500
121.084999	50.935001	1118.130005	-0.818125	-1.483125	1.640625
113.521004	62.708000	1124.169067	-0.818125	-0.809375	-0.297500
114.680000	68.381004	1117.581055	0.861875	-0.809375	-0.297500
114.680000	68.381004	1117.276001	0.568750	-1.623125	0.818125
124.500999	56.303001	1117.276001	1.701875	-0.223125	-0.021875
112.911003	64.965004	1122.217041	-0.135625	-1.045625	-2.629375
130.173996	62.098000	1115.750977	-1.693125	-0.975625	-1.299375
116.510002	56.791000	1118.251953	-0.634375	0.266875	-2.616250
121.329002	59.597000	1122.948975	0.000000	-0.809375	-3.075625
124.745003	73.444000	1121.180054	1.137500	0.380625	-3.338125
111.446999	52.704002	1106.296021	-0.153125	0.953750	-3.530625
121.451004	46.055000	1120.813965	-1.579375	-1.920625	-3.014375
129.869003	56.486000	1126.364990	-0.778750	-1.220625	-4.445000
115.167999	43.188000	1116.727051	-0.691250	0.192500	-3.920000
116.753998	53.558002	1100.440063	-1.754375	0.056875	-3.836875
116.022003	43.371002	1108.552979	-1.640625	-1.732500	-2.808750
118.523003	55.144001	1113.799072	1.487500	-0.918750	-4.138750
122.670998	67.832001	1113.005981	0.253750	-2.371250	-3.320625
123.098000	60.817001	1120.143066	-1.093750	-0.993125	-2.191875
113.642998	53.497002	1121.057983	-2.012500	-0.931875	-2.878750
123.525002	44.957001	1121.302002	-0.966875	-1.229375	-2.581250
124.195999	52.643002	1125.999023	0.778750	-0.196875	-3.167500
118.523003	59.230999	1121.424072	0.879375	-0.376250	-2.126250
113.704002	65.086998	1123.131958	0.280000	-0.065625	-2.244375
124.440002	49.410000	1122.034058	-0.511875	0.096250	-0.914375
117.303001	53.618999	1123.864014	0.875000	0.494375	-1.400000
106.322998	62.525002	1118.312988	-1.981875	1.321250	-0.717500
118.461998	26.474001	1124.412964	-1.793750	1.456875	1.106875
115.655998	25.375999	1122.888062	1.846250	1.579375	-0.293125
115.045998	35.441002	1115.994995	2.196250	1.566250	-0.118125
115.167999	44.591000	1124.046997	1.185625	0.914375	1.120000
116.510002	27.572001	1115.506958	1.413125	2.248750	2.275000
110.471001	32.879002	1104.405029	1.544375	2.611875	1.802500
110.653999	45.018002	1107.577026	0.914375	1.741250	3.136875
116.937004	53.741001	1087.874023	0.826875	0.923125	5.061875
108.397003	65.636002	1098.975952	-0.573125	0.074375	5.818750
103.211998	45.018002	1106.967041	-1.163750	-1.500625	6.435625
102.480003	56.852001	1108.125977	1.010625	-2.095625	2.887500
98.820000	69.417999	1114.775024	0.551250	-3.128125	3.119375
112.972000	66.856003	1113.494019	0.577500	-3.373125	2.205000
120.353004	62.098000	1115.873047	-1.155000	-3.731875	2.441250
125.598999	68.869003	1112.640015	-0.857500	-4.598125	3.093125
124.440002	63.013000	1113.859985	0.056875	-3.093125	1.378125
123.220001	66.063004	1111.053955	0.918750	-2.485000	-0.538125
117.547005	58.865002	1111.420044	-0.905625	-4.239375	-2.773750
131.638000	56.242001	1112.518066	-0.310625	-4.781875	-3.990000
120.109001	55.998001	1125.328003	1.588125	-4.147500	-4.895625
138.775009	57.096001	1117.093018	1.063125	-3.915625	-5.219375
126.331001	56.364002	1119.349976	0.297500	-2.362500	-5.665625
139.568008	45.445000	1116.177979	-0.590625	-2.821875	-4.445000
130.235001	26.352001	1118.495972	0.284375	-1.601250	-4.703125
140.238998	32.757000	1113.615967	0.131250	-2.944375	-5.740000
130.113007	43.675999	1129.354004	0.494375	-2.983750	-7.039375
142.984009	53.862999	1114.348022	-0.542500	-1.732500	-7.223125
129.686005	41.174999	1118.191040	-2.506875	-0.879375	-6.212500
129.930008	46.542999	1129.842041	0.061250	-2.257500	-7.774375
150.852997	71.065002	1120.143066	1.942500	-0.831250	-7.000000
138.408997	75.091003	1120.813965	1.977500	1.076250	-7.306250
137.005997	82.777000	1118.739990	0.721875	-0.424375	-9.318750
137.860001	100.650002	1119.472046	-1.124375	1.303750	-10.259375
123.952003	87.535004	1119.716064	-1.456875	1.356250	-10.294375
125.416000	97.539001	1109.162964	-1.176875	1.093750	-11.602500
103.516998	105.712997	1117.458984	0.179375	1.334375	-10.329375
131.759995	95.221001	1127.401978	2.935625	-0.643125	-10.036250
128.832001	109.433998	1126.547974	1.614375	0.529375	-11.143125
134.016998	112.118004	1118.922974	-1.325625	0.616875	-10.871875
127.306999	88.876999	1112.822998	-0.980000	1.505000	-12.180000
125.660004	73.200005	1100.867065	-0.245000	1.045625	-11.729375
121.146004	72.956001	1099.829956	1.373750	0.087500	-10.276875
130.356995	60.084999	1103.185059	3.119375	-0.341250	-8.640625
122.670998	66.306999	1106.357056	4.462500	-0.861875	-8.465625
121.756004	66.368004	1115.263062	3.679375	-1.540000	-7.354375
138.714005	61.487999	1107.211060	3.666250	-1.732500	-6.072500
129.869003	54.229000	1113.921021	2.493750	-1.071875	-5.201875
125.538002	51.728001	1114.104004	2.826250	-2.270625	-3.635625
123.220001	65.391998	1109.102051	2.559375	-1.098125	-4.755625
118.950005	55.083000	1118.312988	-0.485625	-2.003750	-2.366875
138.897003	43.615002	1117.520020	0.752500	-1.496250	-1.614375
129.137009	42.212002	1120.753052	2.721250	-0.288750	-1.728125
135.968994	51.545002	1116.177979	3.373125	-0.516250	-0.752500
123.890999	61.183002	1120.997070	4.077500	0.354375	-1.439375
144.387009	62.220001	1110.016968	3.180625	-0.210000	-0.739375
130.173996	62.464001	1113.188965	2.690625	0.608125	-0.236250
131.882004	53.862999	1105.625000	2.905000	0.280000	-0.017500
141.093002	44.347000	1102.148071	2.069375	0.118125	0.608125
126.270004	39.894001	1104.099976	2.502500	-0.700000	0.275625
127.978004	61.671001	1102.026001	3.084375	-1.417500	-0.730625
127.856003	62.464001	1121.973022	0.402500	-2.178750	1.435000
135.115005	53.862999	1128.927002	-1.566250	-2.051875	2.839375
123.403000	56.303001	1130.817993	-1.395625	-1.281875	1.583750
133.956009	56.119999	1139.175049	-0.713125	-1.216250	1.111250
144.143005	73.626999	1131.244995	-2.436875	0.704375	0.975625
112.484001	69.417999	1124.169067	-4.086250	2.222500	1.535625
116.570999	60.573002	1135.209961	-4.086250	2.222500	2.174375
116.570999	34.952999	1143.201050	-5.578125	0.910000	2.174375
111.751999	34.952999	1143.201050	-5.600000	3.736250	2.559375
95.281998	22.631001	1146.739014	-1.850625	4.388125	0.166250
99.857002	34.647999	1153.083008	0.004375	4.965625	1.456875
73.504997	47.458000	1161.379028	1.400000	7.813750	0.083125
91.927002	42.272999	1135.880981	2.275000	10.613750	-0.883750
60.878002	48.983002	1110.383057	1.688750	15.684375	-0.721875
61.732002	48.312000	1106.661987	1.592500	10.613750	-0.590625
66.917000	58.011002	1075.307983	1.032500	7.035000	0.293125
66.612000	65.209000	1060.057983	1.229375	10.583125	-0.398125
72.651001	64.171997	1070.916016	1.185625	1.815625	0.962500
83.326004	69.235001	1058.532959	1.627500	1.526875	0.166250
78.568001	69.174004	1075.307983	0.039375	0.000000	1.535625
75.884003	52.948002	1080.859009	-0.153125	-5.197500	2.008125
100.589005	58.621002	1076.161987	3.679375	-2.292500	-0.315000
102.480003	51.179001	1093.119995	4.068750	-8.544375	0.656250
121.695000	66.001999	1104.832031	4.274375	-13.304375	-3.482500
109.983002	73.016998	1119.349976	0.993125	-8.837500	0.231875
111.386002	70.638000	1140.151001	1.076250	-9.979375	-2.152500
149.511002	61.549000	1163.453003	-2.266250	-8.977500	-1.973125
135.054001	60.268002	1164.368042	-1.916250	-5.560625	-3.246250
131.638000	62.830002	1149.118042	0.293125	-4.283125	-6.680625
140.238998	66.917000	1141.493042	-2.506875	-1.898750	-6.129375
133.285004	50.751999	1122.156006	-4.357500	-0.004375	-6.733125
120.048004	47.091999	1125.633057	-1.828750	-0.201250	-7.564375
133.834000	49.837002	1115.629028	-1.561875	-2.725625	-8.920625
136.822998	29.280001	1125.389038	-4.296250	0.183750	-7.682500
107.970001	40.015999	1125.693970	-1.627500	0.490000	-11.261250
114.985001	41.236000	1119.776978	0.052500	2.130625	-11.484375
111.996002	72.711998	1121.057983	0.691250	-0.205625	-12.228125
137.615997	64.721001	1107.271973	1.618750	-1.080625	-15.378125
123.708000	100.467003	1111.114990	2.034375	1.496250	-17.180626
122.366005	101.260002	1099.402954	0.595000	-0.840000	-15.430625
80.459000	96.136002	1101.781982	0.984375	-2.712500	-13.094375
96.746002	111.020004	1120.753052	1.535625	-3.290000	-10.049375
99.369003	98.759003	1121.180054	3.679375	-1.448125	-6.776875
100.162003	123.647003	1126.364990	5.866875	-1.876875	-4.633125
110.410004	132.186996	1120.630981	6.120625	0.875000	-2.301250
81.251999	135.481003	1131.427979	8.841875	2.817500	-2.607500
91.622002	119.559998	1125.266968	9.047500	-0.424375	-1.413125
80.459000	125.721001	1126.303955	4.436250	2.795625	0.931875
87.901001	124.683998	1111.420044	-0.039375	5.035625	4.173750
91.561005	101.565002	1104.282959	0.564375	4.256875	6.593125
95.586998	110.715004	1101.537964	0.700000	1.330000	7.761250
100.467003	101.565002	1096.780029	0.004375	0.883750	11.156250
90.219002	95.709000	1099.159058	1.255625	1.487500	9.121875
83.997002	96.868004	1098.609985	2.170000	0.266875	11.729375
72.406998	101.320999	1109.956055	2.345000	-0.704375	13.737500
94.855003	83.082001	1110.200073	3.815000	-2.572500	13.720000
98.637001	85.827003	1111.176025	3.473750	-1.500625	17.307501
114.557999	66.001999	1099.646973	1.238125	-2.603125	18.068750
113.094002	61.732002	1105.136963	3.018750	-2.581250	15.168125
94.550003	63.318001	1105.320068	3.062500	-0.389375	13.755000
92.842003	63.074001	1126.730957	1.190000	-2.585625	15.347500
88.938004	77.348000	1119.655029	1.719375	-2.988125	13.164375
100.284004	63.684002	1121.667969	0.026250	-2.773750	14.599375
81.739998	73.504997	1119.349976	-2.174375	-2.611875	13.991250
101.687004	59.414001	1109.895020	-5.696250	-5.293750	14.358750
120.474998	35.685001	1090.802002	-5.411875	-4.042500	15.728125
91.500000	30.622000	1116.117065	-3.683750	-5.333125	13.269375
116.815002	35.563000	1144.725952	0.905625	-7.525000	8.010625
108.275002	60.938999	1149.911011	4.046875	-3.863125	4.895625
117.668999	73.321999	1151.070068	3.666250	-1.308125	5.044375
126.209000	67.649002	1150.216064	-1.548750	1.430625	3.854375
126.148003	40.564999	1131.062012	-6.247500	2.747500	4.471250
119.011002	26.474001	1137.344971	-5.376875	1.570625	1.614375
121.939003	48.129002	1122.034058	-0.253750	0.730625	-0.787500
103.821999	60.512001	1126.120972	4.458125	2.104375	-4.978750
105.286003	75.639999	1126.182007	5.350625	1.811250	-6.282500
97.173004	63.135002	1107.394043	2.196250	5.197500	-5.464375
106.079002	28.792000	1116.727051	0.853125	3.762500	-7.511875
119.071999	43.431999	1118.984009	1.596875	2.476250	-10.154375
100.405998	66.673004	1099.219971	2.598750	5.722500	-10.027500
88.145004	38.125000	1097.511963	2.983750	8.631875	-7.704375
78.018997	43.126999	1093.485962	-1.846250	7.113750	-8.894375
81.191002	28.182001	1127.707031	-6.873125	0.730625	-9.397500
84.973000	65.086998	1127.890015	-7.962500	-4.729375	-10.920000
111.020004	15.738000	1143.750000	-7.161875	-4.760000	-12.963125
147.925003	12.444000	1120.265015	-0.433125	-0.892500	-12.963125
142.374008	-8.967000	1153.571045	18.186874	7.494375	-29.378124
90.462997	44.225002	1107.515991	20.601875	12.495000	-33.875626
35.196999	138.835999	1073.112061	8.929375	13.689375	-27.540625
12.993000	141.947006	1059.326050	-1.841875	8.675625	-19.648125
33.123001	116.937004	1062.681030	-7.070000	-10.456250	-10.640000
87.778999	99.430000	1100.256958	-7.568750	-20.584375	-9.209375
139.628998	90.707001	1109.406982	-2.130625	-14.035000	-17.670626
124.074005	119.438004	1123.619995	-0.984375	-6.623750	-18.033751
103.944000	108.030998	1130.879028	-3.793125	-1.540000	-10.123750
81.434998	91.256004	1131.550049	-5.044375	-0.770000	-4.672500
87.413002	79.117004	1134.905029	-4.051250	-2.616250	-3.176250
80.581001	121.024002	1133.135986	-1.531250	-2.498125	-6.142500
98.881004	129.137009	1127.463013	-0.717500	-1.295000	-5.035625
96.624001	145.423996	1134.416992	-0.717500	-1.592500	-3.246250
129.746994	124.745003	1131.306030	-3.539375	-1.592500	-3.246250
129.746994	124.745003	1131.306030	-4.650625	-0.625625	-3.683750
98.454002	114.741005	1127.401978	-4.418750	4.108125	-3.206875
94.428001	102.175003	1120.875000	-2.716875	2.638125	-0.695625
89.426003	92.780998	1110.260986	-0.638750	4.698750	-0.039375
81.069000	81.434998	1106.417969	-0.612500	3.740625	3.075625
99.002998	83.204002	1099.281006	1.509375	3.163125	2.200625
83.204002	71.308998	1100.440063	2.835000	4.252500	4.550000
73.261002	93.147003	1107.088989	3.784375	0.647500	6.378750
84.302002	80.946999	1105.442017	4.025000	-0.008750	7.599375
83.204002	75.334999	1128.072998	3.675000	-1.505000	10.364375
92.903000	66.429001	1119.045044	4.930625	-0.376250	10.115000
91.622002	63.318001	1132.281982	6.300000	-0.673750	10.854375
100.589005	72.163002	1132.404053	4.624375	-4.353125	13.803125
113.459999	62.525002	1126.120972	5.783750	-0.739375	15.522500
97.966003	76.127998	1121.790039	5.656875	2.830625	14.857500
84.545998	72.956001	1115.506958	2.883125	2.576875	16.318750
93.635002	77.897003	1110.687988	1.793750	2.336250	14.752500
82.289001	66.917000	1104.526978	0.708750	2.546250	14.643125
67.222000	71.308998	1104.222046	0.126875	2.021250	15.750000
57.767002	47.763000	1124.656982	-0.713125	1.456875	13.995625
58.560001	63.195999	1154.973999	2.388750	-5.188750	9.493750
90.158005	72.528999	1124.229980	3.408125	-7.971250	9.310000
115.960999	50.202999	1119.593994	1.986250	-2.371250	9.712500
105.103004	46.237999	1111.114990	-1.330000	3.368750	6.943125
85.643997	34.831001	1104.282959	-2.454375	6.461875	4.865000
56.973999	28.609001	1103.612061	-3.618125	3.123750	1.907500
59.719002	30.927000	1111.480957	-2.996875	-1.299375	-0.997500
48.373001	55.693001	1117.093018	-2.218125	-1.120000	-6.203750
63.562000	44.957001	1122.827026	-2.730000	-2.546250	-5.057500
79.300003	48.250999	1127.097046	-1.106875	-0.953750	-7.275625
54.229000	18.666000	1130.756958	-0.984375	1.391250	-7.691250
61.061001	34.647999	1127.157959	1.351875	-0.140000	-11.379375
55.449001	37.637001	1125.328003	1.903125	1.513750	-15.286250
56.119999	59.353001	1132.221069	-0.328125	-0.581875	-15.732500
63.257000	64.476997	1146.190063	-1.544375	-2.340625	-16.760626
50.935001	66.489998	1125.693970	1.680000	2.248750	-15.098125
37.453999	65.879997	1116.848999	1.465625	3.521875	-11.580625
55.570999	42.028999	1105.503052	1.251250	0.735000	-8.246875
53.680000	52.826000	1096.963013	0.901250	-0.735000	-10.040625
66.856003	50.264000	1107.027954	-0.796250	-2.012500	-12.061875
61.549000	77.714005	1102.514038	0.393750	-1.833125	-13.195000
57.706001	82.532997	1100.196045	0.787500	-2.476250	-10.036250
69.174004	76.677002	1118.374023	2.095625	-2.244375	-11.007500
67.222000	87.840004	1119.593994	1.548750	-1.793750	-11.261250
72.651001	79.117004	1126.730957	3.066875	-3.233125	-10.548125
61.915001	90.036003	1115.994995	3.163125	-1.093750	-10.053750
69.723000	88.206001	1128.255981	2.095625	-2.585625	-11.169375
66.978004	84.545998	1118.312988	1.806875	-2.073750	-12.490625
73.993004	91.927002	1112.761963	0.765625	-0.507500	-11.252500
50.447002	88.450005	1107.454956	-1.413125	0.542500	-10.556875
76.737999	86.620003	1119.959961	-1.938125	-4.519375	-9.813125
110.593002	71.492004	1126.364990	1.006250	-3.381875	-11.515000
81.251999	77.530998	1128.255981	3.661875	-1.233750	-14.000000
109.068001	94.306000	1121.240967	1.111250	-3.478125	-9.953125
94.306000	73.688004	1113.311035	0.866250	0.455000	-5.783750
86.070999	77.287003	1109.346069	1.281875	-1.321250	-6.588750
99.795998	72.468002	1105.076050	0.126875	-3.412500	-4.886875
81.984001	83.204002	1099.646973	0.231875	-2.318750	-6.321875
91.072998	77.714005	1099.708008	-0.100625	-3.994375	-6.776875
97.904999	94.916000	1093.058960	0.275625	-3.513125	-3.132500
116.205002	73.626999	1110.566040	0.538125	-4.961250	0.647500
123.890999	55.021999	1116.971069	2.966250	-5.035625	-1.522500
100.345001	92.292999	1118.008057	2.756250	-4.195625	-2.117500
105.834999	80.825005	1129.109985	3.228750	-5.792500	-1.684375
110.959000	97.722000	1131.733032	2.533125	-5.368125	-3.145625
113.094002	87.413002	1123.802979	0.000000	-4.900000	-1.623125
124.683998	81.069000	1128.195068	1.216250	-5.022500	-3.351250
132.919006	105.834999	1120.020996	0.227500	-3.810625	-3.193750
132.736008	90.036003	1124.169067	-1.382500	-2.038750	-0.056875
138.653000	81.556999	1132.587036	0.210000	-2.178750	0.568750
132.309006	74.847000	1120.997070	0.700000	-0.813750	-0.240625
127.734001	79.483002	1129.659058	1.566250	-0.879375	0.415625
133.529007	90.402000	1117.337036	1.356250	0.043750	0.507500
132.126007	82.899002	1111.114990	0.826875	0.892500	1.981875
136.822998	96.624001	1119.532959	0.468125	1.828750	3.276875
114.741005	93.818001	1107.577026	1.347500	4.208750	2.073750
114.802002	95.831001	1114.775024	-0.078750	2.563750	0.695625
108.640999	91.987999	1109.651001	-1.054375	2.231250	-0.415625
100.955002	96.563004	1112.701050	-1.653750	1.063125	-0.949375
101.625999	77.835999	1113.128052	-1.706250	0.043750	-0.245000
105.224998	87.535004	1113.005981	-0.840000	-1.955625	-1.890000
112.667000	88.328003	1104.526978	-1.776250	-1.093750	-1.321250
110.531998	77.653000	1110.383057	-1.798125	2.012500	0.131250
119.133003	51.179001	1114.531006	1.168125	1.098125	0.140000
104.188004	56.059002	1148.203003	3.018750	0.284375	-2.471875
102.846001	72.711998	1131.671997	2.966250	1.929375	-5.783750
74.847000	101.138000	1128.134033	1.623125	4.353125	-3.976875
69.662003	94.733002	1125.450073	0.879375	4.130000	-1.010625
72.101997	91.134003	1106.784058	-1.303750	3.889375	1.321250
67.709999	60.268002	1114.409058	-0.179375	2.585625	1.693125
76.920998	72.101997	1106.723022	2.716875	2.423750	-0.708750
78.202003	82.349998	1104.709961	2.900625	2.576875	-1.242500
76.127998	81.496002	1094.523071	1.798125	2.152500	-0.717500
56.973999	78.323997	1099.159058	-0.739375	0.743750	-0.266875
76.189003	74.419998	1123.681030	-2.454375	-2.178750	0.126875
84.240997	62.769001	1122.765991	-1.225000	-0.761250	-1.146250
61.305000	74.786003	1119.959961	0.144375	0.402500	-1.960000
76.982002	77.104004	1120.447998	0.153125	-0.560000	-1.627500
79.726997	77.104004	1120.936035	-0.498750	0.647500	-1.295000
61.487999	62.098000	1116.787964	-0.131250	0.376250	-1.631875
76.494003	61.610001	1118.130005	-0.131250	0.376250	-1.631875
76.494003	61.610001	1114.104004	-0.214375	-1.933750	-1.334375
54.473000	65.941002	1114.104004	0.647500	0.542500	-1.566250
56.730000	73.261002	1115.567993	1.124375	-0.056875	-1.185625
60.573002	75.274002	1120.020996	0.927500	-1.194375	-0.380625
68.502998	64.721001	1111.603027	1.308125	-0.218750	-0.630000
53.558002	84.850998	1115.140991	1.653750	0.039375	-1.251250
61.183002	75.945000	1122.827026	1.058750	-1.111250	-0.406875
78.445999	67.039001	1116.360962	2.065000	0.118125	0.455000
79.178001	79.056000	1116.177979	1.452500	-0.126875	-0.196875
103.151001	74.054001	1112.395996	0.516250	-1.071875	0.975625
106.201004	77.165001	1114.469971	2.388750	-0.013125	0.918750
132.492004	70.333000	1112.761963	1.999375	-0.883750	2.148125
73.626999	85.278000	1096.291992	2.725625	3.351250	-2.060625
40.138000	95.221001	1091.229004	-0.428750	6.702500	0.721875
52.948002	74.664001	1048.651001	-1.163750	1.579375	3.758125
21.472000	131.576996	1052.677002	-4.326875	2.358125	-1.172500
18.666000	160.307999	1108.552979	-9.095625	-2.401875	10.981250
10.065001	74.847000	1128.195068	-2.795625	0.017500	16.769375
7.930000	49.227001	1119.899048	0.857500	-3.320625	3.990000
29.585001	39.955002	1123.681030	-0.131250	-12.731250	-2.541875
71.248001	89.609001	1129.171021	0.021875	-12.910625	-5.792500
82.349998	55.021999	1123.192993	0.586250	-8.369375	-4.904375
98.087997	67.587997	1128.072998	3.727500	-7.135625	-7.940625
114.802002	49.897999	1127.645996	5.783750	-5.565000	-6.510000
114.802002	73.504997	1132.953003	9.432500	0.083125	-4.891250
106.322998	62.403000	1147.776001	14.096250	-3.189375	-4.445000
94.488998	74.419998	1131.183960	15.938125	-2.065000	-4.200000
105.896004	113.642998	1129.232056	11.541250	-1.338750	-1.548750
120.169998	104.493004	1155.583984	7.043750	1.203125	-0.065625
144.996994	95.709000	1181.447998	5.954375	5.635000	2.218125
133.529007	134.626999	1163.758057	6.265000	4.633125	6.440000
116.753998	127.551003	1163.880005	6.536250	3.430000	10.145625
84.790001	106.872002	1126.609009	10.920000	6.383125	9.314375
79.361000	145.240997	1126.914062	11.869375	6.321875	8.111250
75.396004	155.001007	1105.259033	7.371875	2.677500	11.331250
87.473999	141.886002	1096.230957	1.929375	8.220625	13.225625
65.331001	122.610001	1115.506958	-2.393125	10.871875	13.645625
68.381004	147.436996	1107.821045	-7.166250	4.633125	10.386250
44.834999	71.613998	1118.374023	-5.788125	4.865000	1.141875
58.804001	118.461998	1107.577026	-1.881250	-0.406875	5.145000
67.404999	133.956009	1112.091064	-1.325625	-4.064375	9.940000
83.936005	84.424004	1113.372070	0.511875	-1.662500	3.893750
78.568001	145.790009	1092.083008	-2.800000	-1.316875	3.666250
90.889999	123.403000	1081.957031	-17.132500	-8.802500	-1.303750
119.804001	72.711998	1115.629028	-16.935625	1.662500	-6.129375
94.488998	77.042999	1142.286011	-12.451250	8.211875	-9.108750
40.809002	76.860001	1071.831055	-12.425000	10.762500	-6.339375
31.659000	65.453003	1058.532959	-7.415625	0.245000	-5.333125
28.059999	32.452000	1106.906006	6.059375	-10.600625	-5.429375
52.154999	34.647999	1053.042969	10.294375	-10.141250	1.246875
17.202000	26.169001	1128.622070	21.503124	-17.709999	4.318125
105.652000	66.794998	1095.072021	27.129375	-21.612499	10.622500
145.729004	83.447998	1108.248047	8.754375	-13.015625	2.913750
138.408997	90.951004	1146.983032	-3.561250	1.085000	-6.698125
78.385002	123.464005	1142.286011	-9.905000	-0.214375	-5.823125
95.891998	66.429001	1136.613037	-8.080625	-7.936250	-3.036250
98.881004	89.974998	1103.734009	-5.936875	-9.073750	-6.020000
85.643997	64.111000	1132.160034	-13.811875	-8.570625	-5.381250
138.897003	71.675003	1089.643066	-18.103750	-1.089375	-12.223750
99.369003	49.348999	1110.870972	-14.345625	-3.867500	-12.455625
107.055000	63.440002	1094.828003	-9.362500	-17.115000	-1.920625
195.566010	170.311996	1106.296021	1.045625	-11.353125	-5.005000
161.650009	119.194000	1111.114990	5.359375	4.978750	-4.738125
147.376007	119.681999	1138.869995	-1.780625	7.861875	-1.592500
138.165009	99.186005	1124.229980	-10.338125	13.982500	-7.975625
103.334000	52.459999	1134.234009	-12.376875	16.327499	-16.651251
107.420998	61.915001	1109.529053	-5.643750	12.595625	-19.359375
91.377998	65.209000	1087.568970	-4.698750	7.100625	-13.282500
99.247002	84.240997	1076.467041	-2.843750	-1.833125	-2.502500
119.864998	60.084999	1082.932983	1.054375	9.489375	6.654375
90.767998	108.458000	1114.225952	4.672500	13.916875	6.492500
96.196999	95.953003	1086.227051	2.590000	18.335625	-2.301250
0.488000	82.349998	1128.378052	2.620625	23.576876	-11.952500
4.331000	92.537003	1120.753052	5.814375	12.149375	-13.466250
-10.736000	106.017998	1109.162964	5.573750	-2.826250	-4.475625
20.618000	89.059998	1134.051025	7.581875	-15.981875	7.848750
64.416000	109.738998	1103.001953	8.400000	-27.475000	15.102500
75.029999	108.458000	1127.463013	2.095625	-30.450001	13.838125
162.320999	87.656998	1117.703003	1.203125	-21.258125	4.466875
158.722000	62.525002	1116.787964	2.366875	-12.932500	0.446250
160.856995	71.675003	1138.198975	6.103125	-5.110000	-1.981875
130.783997	63.135002	1100.013062	7.665000	7.665000	-6.986875
73.504997	68.625000	1142.286011	7.713125	12.810000	-4.615625
89.914001	81.618004	1152.534058	6.724375	3.185000	-5.350625
90.279999	100.223000	1122.644043	3.793125	-5.770625	-0.529375
90.646004	102.601997	1141.614990	2.030000	-5.473125	3.491250
107.116005	101.748001	1104.161011	0.315000	-3.565625	7.783125
95.343002	119.316002	1151.802002	0.315000	-3.565625	4.904375
95.343002	119.316002	1117.154053	-5.149375	1.155000	4.904375
134.139008	62.403000	1117.154053	-9.458750	0.988750	2.541875
100.894005	24.583000	1081.774048	-12.223750	-1.741250	7.630000
119.987000	2.867000	1096.536011	-9.576875	-4.081875	5.534375
127.673004	-13.542000	1083.665039	-6.238750	-2.065000	3.150000
125.172005	-9.089000	1071.037964	1.561875	-0.910000	-0.809375
126.880005	-3.599000	1074.636963	10.465000	5.149375	-9.275000
122.366005	34.587002	1084.031006	19.985001	11.379375	-15.404375
92.110001	67.892998	1134.539062	12.368125	8.627500	-14.332500
87.473999	89.487000	1123.925049	9.721250	-0.275625	-5.796875
115.045998	108.763000	1147.471069	4.283125	-4.151875	0.905625
102.053001	63.806000	1136.369019	-0.533750	0.704375	0.818125
106.445000	61.000000	1156.133057	-1.741250	-1.675625	-1.190000
126.941002	45.139999	1131.854980	-3.806250	-0.205625	-2.555000
92.964005	32.757000	1131.427979	-1.732500	8.036875	-5.683125
58.438000	53.375000	1134.905029	1.264375	7.765625	-9.791250
66.063004	72.285004	1113.982056	2.489375	4.173750	-9.078125
51.484001	64.843002	1104.282959	2.550625	0.966875	-5.901875
44.347000	18.910000	1121.302002	2.633750	-1.176875	-10.132500
60.512001	73.871002	1096.230957	6.151250	-3.513125	-13.951875
58.926003	105.652000	1093.485962	6.615000	-5.910625	-9.222500
88.450005	114.741005	1112.091064	3.815000	-7.105000	-4.541250
100.894005	128.100006	1108.735962	-0.647500	-6.033125	-4.283125
96.258003	112.362000	1118.862061	-3.832500	-3.972500	-0.538125
106.750000	100.955002	1112.578979	-4.116875	-1.990625	-1.338750
82.411003	100.772003	1111.176025	-2.349375	1.225000	-2.655625
78.812004	93.147003	1128.011963	-0.971250	-0.551250	-0.660625
94.550003	94.062004	1100.013062	-1.509375	-3.863125	-1.063125
70.455002	82.289001	1104.161011	-3.780000	-1.456875	1.080625
81.984001	80.764000	1133.135986	-3.574375	-2.940000	0.603750
91.195000	75.457001	1114.713989	-2.673125	-1.636250	3.325000
81.801003	65.696999	1120.997070	-1.321250	2.568125	3.613750
80.276001	81.008003	1119.716064	2.065000	3.421250	0.765625
59.535999	80.764000	1123.071045	2.056250	4.405625	2.651250
59.170002	94.672005	1107.515991	0.953750	2.261875	2.196250
62.769001	92.842003	1111.114990	-0.411250	-0.791875	5.381250
70.333000	103.700005	1118.801025	2.428125	-1.938125	5.639375
93.635002	101.382004	1111.847046	3.788750	-3.303125	5.630625
108.214005	111.874001	1114.348022	2.585625	-2.721250	3.867500
115.960999	114.985001	1113.250000	1.032500	-1.093750	2.349375
108.153000	102.541000	1104.770996	1.618750	1.767500	2.030000
89.669998	117.486000	1117.154053	2.423750	-1.566250	-1.281875
106.262001	128.222000	1126.853027	2.091250	-4.357500	-0.472500
103.090004	125.172005	1133.685059	1.732500	-1.728125	-3.416875
110.593002	129.259003	1130.329956	0.091875	-3.075625	-4.545625
111.508003	114.436005	1122.094971	-0.153125	-0.888125	-3.902500
102.053001	118.156998	1120.692017	-0.861875	-0.323750	-3.841250
114.314003	96.075005	1108.552979	-0.428750	0.306250	-1.255625
95.891998	104.005005	1105.686035	2.664375	1.080625	-2.590000
111.020004	121.756004	1099.769043	3.513125	-1.111250	-2.069375
115.960999	100.589005	1111.420044	0.796250	-1.041250	-1.833125
117.242004	119.743004	1115.263062	0.415625	-2.340625	-5.840625
118.706001	117.120003	1106.967041	0.393750	-1.303750	-3.648750
120.414001	97.966003	1123.742065	0.568750	0.406875	-4.366250
111.934998	101.443001	1111.603027	0.857500	-1.588125	-4.300625
115.595001	87.230003	1131.977051	2.126250	-1.833125	-3.810625
125.111000	96.929001	1123.802979	4.064375	-1.968750	-5.547500
102.418999	98.942001	1116.483032	3.486875	-0.888125	-5.337500
118.828003	106.811005	1134.172974	0.940625	-2.345000	-4.812500
142.800995	100.710999	1122.461060	-1.098125	-1.579375	-5.600000
119.499001	96.746002	1124.718018	-0.280000	3.338125	-6.343750
133.468002	106.322998	1127.584961	-0.660625	2.082500	-7.721875
124.988998	128.649002	1106.113037	-0.805000	3.390625	-12.665625
87.901001	96.258003	1124.108032	-2.633750	5.993750	-9.336250
105.164001	57.401001	1118.191040	-6.426875	5.276250	-4.300625
97.294998	52.459999	1116.787964	-4.081875	4.637500	-5.508125
95.403999	41.418999	1107.088989	-0.227500	4.331250	-4.742500
88.266998	70.272003	1102.514038	3.421250	3.281250	-5.075000
89.304001	64.476997	1098.244019	3.416875	1.185625	-3.250625
80.825005	85.460999	1097.268066	2.047500	1.706250	-0.420000
77.104004	80.641998	1107.088989	1.063125	0.266875	-1.553125
80.581001	89.609001	1103.734009	1.369375	-4.370625	-1.216250
99.979004	100.528000	1111.968994	2.585625	-4.690000	-2.301250
84.912003	92.659004	1129.354004	2.240000	0.673750	-0.581875
93.390999	80.093002	1132.831055	0.507500	-2.078125	-0.481250
107.604004	79.788002	1126.120972	-0.927500	-3.548125	-0.170625
91.377998	64.416000	1129.171021	-0.686875	0.892500	0.135625
94.488998	67.282997	1133.562988	1.456875	0.109375	-1.820000
80.153999	93.940002	1137.954956	1.443750	0.546875	-1.474375
77.592003	89.914001	1136.186035	0.809375	2.743125	-2.926875
71.187004	93.147003	1125.876953	2.288125	3.828125	-3.648750
65.819000	91.377998	1129.171021	1.190000	4.270000	-0.157500
68.990997	82.532997	1119.045044	0.892500	4.226250	0.231875
38.430000	68.076004	1113.677002	1.334375	9.209375	0.371875
19.764000	71.675003	1119.166992	1.089375	7.385000	-0.923125
27.877001	81.434998	1116.910034	3.119375	3.145625	-0.713125
22.570000	98.087997	1113.005981	4.200000	1.351875	-1.745625
48.129002	111.141998	1123.071045	3.539375	-0.332500	-1.855000
39.711002	125.660004	1112.578979	2.843750	2.629375	-2.607500
32.146999	116.327003	1118.312988	0.835625	4.003125	-5.289375
10.431000	114.314003	1102.635986	0.774375	7.446250	-4.353125
-18.788000	111.996002	1094.523071	1.023750	9.568125	-5.254375
-38.063999	112.362000	1089.399048	1.076250	7.634375	-8.286250
-54.534000	119.011002	1095.620972	1.076250	7.205625	-5.871250
-71.736000	104.188004	1081.041992	0.096250	7.205625	-5.871250
-71.736000	104.188004	1093.729980	1.115625	5.941250	-5.901875
-60.633999	102.358002	1093.729980	-0.017500	0.529375	-3.075625
-50.264000	96.868004	1094.828003	0.682500	-2.043125	-3.084375
-8.784000	95.891998	1097.817017	4.554375	-4.051250	-5.897500
-14.457000	145.363007	1100.379028	3.998750	-2.813125	2.454375
-8.845000	90.097000	1109.041016	2.091250	-2.870000	9.362500
-4.819000	86.132004	1086.837036	2.765000	-5.140625	9.161250
14.213000	97.478004	1106.113037	-2.130625	-8.295000	4.195625
59.902000	80.886002	1135.697998	-0.975625	-16.248751	-0.962500
95.586998	125.172005	1138.931030	0.056875	-18.129999	-9.091250
94.916000	133.895004	1145.275024	4.773125	-9.537500	-8.321250
85.339005	147.498001	1126.182007	3.762500	-0.087500	-5.114375
53.924000	141.581009	1132.587036	-0.153125	6.982500	0.166250
38.307999	108.092003	1143.872070	1.526875	5.630625	1.356250
31.293001	110.288002	1128.378052	3.618125	5.070625	0.231875
24.583000	104.493004	1144.238037	5.678750	2.664375	0.835625
60.817001	123.647003	1138.321045	9.804375	-1.653750	-3.049375
65.696999	151.645996	1106.052002	6.063750	0.472500	-3.049375
46.237999	140.483002	1106.784058	3.771250	8.771875	-1.841875
17.873001	141.031998	1098.427002	1.872500	10.014375	-2.441250
27.511000	126.514000	1083.969971	1.159375	7.275625	0.380625
15.677000	127.246002	1096.170044	3.163125	3.613750	0.048125
13.908000	131.089005	1074.880981	3.080000	0.590625	0.581875
23.363001	136.578995	1091.534058	2.375625	-2.441250	1.518125
19.886000	132.248001	1097.328979	1.242500	-4.213125	-0.035000
25.071001	132.248001	1105.259033	0.328125	-7.936250	0.113750
45.811001	136.457001	1123.315063	-0.288750	-9.187500	-1.627500
45.750000	137.738007	1124.473999	-0.857500	-9.940000	-1.115625
57.706001	130.966995	1135.453979	-0.332500	-9.296875	-2.358125
84.790001	124.135002	1150.582031	-1.745625	-8.273125	-0.726250
76.555000	122.122002	1135.942017	0.336875	-5.858125	-1.824375
72.468002	138.104004	1137.284058	2.524375	-2.979375	-2.620625
63.989002	141.459000	1125.755005	1.850625	0.166250	-0.678125
59.292000	141.397995	1125.450073	0.634375	1.369375	-2.454375
60.389999	128.710007	1136.186035	-0.896875	-0.485625	-0.870625
80.703003	131.820999	1125.999023	1.925000	-0.586250	-2.821875
63.074001	142.617996	1123.375977	2.660000	3.171875	-5.481875
62.220001	138.714005	1116.848999	0.896875	2.331875	-1.719375
82.167000	145.606995	1112.518066	1.264375	0.511875	-3.403750
63.318001	141.764008	1110.078003	-0.153125	1.671250	-3.933125
60.756001	141.520004	1120.447998	0.564375	2.738750	-3.675000
57.584000	145.973007	1108.308960	-1.211875	2.323125	-3.701250
54.900002	132.369995	1116.971069	-3.119375	2.940000	-0.498750
41.114002	116.510002	1122.461060	-2.428125	2.279375	-0.354375
55.144001	117.486000	1126.609009	-3.215625	0.078750	-0.835625
73.261002	119.804001	1115.629028	-0.437500	1.330000	-1.430625
62.769001	134.932007	1109.773071	1.715000	3.066875	-3.106250
62.098000	138.165009	1102.453003	1.159375	2.677500	-1.820000
43.675999	151.889999	1117.641968	0.625625	2.528750	-0.975625
47.031002	141.337006	1115.690063	0.555625	0.192500	-1.264375
26.596001	132.796997	1124.291016	-1.684375	3.797500	-1.417500
17.019001	126.331001	1153.631958	-2.244375	0.358750	-2.638125
42.028999	126.148003	1124.596069	-2.034375	-1.373750	0.004375
8.662000	134.016998	1141.187988	-2.625000	1.798125	0.826875
19.398001	116.632004	1143.505981	-1.220625	-1.281875	2.310000
-19.093000	142.313004	1145.640991	0.065625	-4.239375	2.769375
6.161000	117.303001	1162.904053	-1.264375	-6.002500	5.302500
52.338001	112.728004	1166.015015	-1.592500	-4.913125	5.512500
43.371002	107.970001	1150.582031	-3.478125	-0.538125	0.415625
39.040001	115.229004	1120.936035	-4.624375	0.647500	-2.362500
51.605999	99.430000	1102.880005	-4.703125	5.862500	-2.738750
24.095001	101.808998	1115.933960	-2.590000	8.509375	-1.640625
7.686000	99.064003	1098.975952	-0.984375	7.284375	-1.929375
21.106001	97.966003	1081.286011	0.888125	9.038750	-4.322500
3.050000	95.281998	1058.899048	2.432500	7.083125	-4.865000
13.908000	87.656998	1044.197998	2.555000	6.098750	-1.767500
7.869000	89.426003	1054.690063	2.126250	4.935000	-2.196250
-7.564000	81.556999	1051.151978	3.727500	4.029375	-2.528750
-10.614000	97.966003	1082.994019	3.508750	0.354375	0.280000
-9.272000	84.545998	1091.594971	2.511250	-1.277500	0.341250
-41.723999	92.292999	1131.977051	-0.008750	-2.270625	1.955625
-23.485001	82.167000	1124.535034	-1.439375	-3.303125	0.122500
-22.691999	80.520004	1105.807983	-2.178750	-0.691250	-1.505000
-11.712000	68.381004	1112.213013	-4.655000	-1.452500	-0.984375
-13.908000	57.035000	1132.953003	-3.395000	-4.571875	-0.253750
-0.732000	73.688004	1116.544067	0.490000	-4.886875	-2.310000
-2.806000	108.763000	1104.039062	-0.476875	-1.544375	-4.182500
-13.359000	113.277000	1119.105957	-1.470000	-2.957500	-4.921875
5.795000	113.826004	1092.937012	-1.990625	-5.713750	-4.554375
-7.320000	110.043999	1087.995972	-1.522500	-6.934375	-4.291875
-13.969000	114.985001	1122.338989	0.682500	-12.285000	-0.017500
26.657000	110.653999	1094.156982	1.452500	-9.835000	0.673750
39.284000	87.535004	1121.180054	-2.690625	-2.336250	-0.096250
44.347000	71.003998	1132.770020	-2.441250	-4.230625	-2.043125
59.902000	93.635002	1115.202026	0.026250	-7.310625	-6.365625
69.784004	81.069000	1114.104004	-1.216250	-2.366875	-8.942500
57.889000	112.606003	1136.369019	1.255625	-0.113750	-12.753125
68.807999	100.833000	1119.593994	0.577500	0.122500	-12.057500
55.875999	94.976997	1131.062012	2.830625	2.996875	-12.893125
19.520000	114.741005	1126.914062	5.915000	1.211875	-17.101875
10.919000	113.704002	1120.509033	4.195625	-2.961875	-13.597500
-5.368000	116.022003	1124.535034	7.074375	-0.835625	-14.148750
-6.954000	146.888000	1112.457031	8.706250	-3.928750	-14.857500
14.457000	161.650009	1110.566040	8.303750	-7.017500	-13.715625
14.152000	166.225006	1102.818970	7.577500	-3.325000	-17.447500
14.152000	169.275009	1112.091064	2.922500	-4.300625	-16.283751
20.313000	155.854996	1125.328003	2.922500	-4.300625	-13.746250
43.126999	171.654007	1121.180054	4.296250	-4.742500	-13.746250
43.126999	171.654007	1129.902954	6.470625	-6.146875	-12.941250
39.040001	179.156998	1129.902954	2.821875	-7.336875	-8.671250
66.001999	158.783005	1130.573975	2.340625	-8.478750	-4.742500
58.376999	145.180008	1126.670044	2.673125	-4.410000	-4.278750
45.567001	155.306000	1127.645996	2.782500	-2.979375	-4.020625
48.190002	164.639008	1132.953003	6.619375	-1.255625	-2.905000
30.012001	156.831009	1121.973022	6.864375	1.981875	-2.034375
52.033001	182.389999	1121.424072	2.953125	-0.420000	0.288750
59.597000	174.399002	1114.165039	1.653750	2.686250	2.362500
46.786999	170.068008	1101.233032	2.086875	7.686875	4.904375
27.572001	176.229004	1106.723022	2.108750	4.130000	7.630000
45.139999	164.761002	1082.567017	3.985625	-0.083125	10.403750
53.497002	164.944000	1077.625977	3.430000	0.634375	9.432500
60.451000	148.962006	1099.159058	-0.774375	-3.670625	12.989375
74.176003	139.384995	1103.062988	1.106875	-6.671875	13.584375
86.253998	161.589005	1091.229004	-1.439375	1.120000	11.519375
53.192001	160.673996	1139.906982	-5.543125	5.805625	16.318750
51.728001	161.283997	1131.000977	-8.163750	3.377500	16.642500
23.485001	154.634995	1111.664062	-15.203125	3.670625	18.116875
55.754002	126.209000	1127.890015	-18.996250	-1.955625	17.482500
74.847000	93.573997	1124.473999	-14.568750	-2.069375	11.808125
61.732002	92.475998	1134.966064	-6.825000	1.548750	7.398125
72.101997	88.084000	1143.445068	1.338750	0.787500	4.694375
51.972000	108.397003	1115.140991	6.020000	4.843125	1.155000
16.348000	97.294998	1109.833984	3.154375	8.933750	2.791250
25.315001	81.496002	1099.036987	4.799375	5.267500	1.771875
19.215000	74.724998	1088.057007	5.945625	6.033125	-0.910000
30.866001	71.370003	1126.974976	-0.778750	0.511875	6.680625
36.783001	62.890999	1116.727051	-4.016250	-4.847500	11.007500
48.922001	64.781998	1130.452026	-5.035625	-0.196875	15.671250
50.751999	59.658001	1139.541016	-6.002500	2.445625	14.831250
55.449001	67.892998	1122.034058	-6.356875	6.208125	12.355000
37.209999	83.204002	1132.037964	-8.828750	11.838750	8.758750
29.463001	75.579002	1150.520996	-9.349375	14.713125	4.007500
-13.359000	63.744999	1150.703979	-11.278750	13.356875	8.535625
29.646000	35.563000	1138.565063	-8.190000	7.087500	10.176250
-22.997000	38.491001	1101.721069	-2.865625	8.071875	9.288125
-18.726999	14.945000	1093.912964	4.764375	7.249375	9.940000
1.525000	104.066002	1110.566040	7.240625	9.117500	7.358750
-37.027000	10.492001	1093.852051	-0.420000	9.905000	10.093125
-29.585001	75.212997	1110.687988	-6.286875	6.457500	7.866250
-51.910999	50.081001	1105.563965	-6.510000	6.759375	6.685000
-59.353001	24.948999	1132.648071	-1.553125	3.596250	6.020000
-26.352001	39.040001	1120.386963	7.914375	1.522500	2.471875
-45.993999	61.183002	1120.936035	8.605625	9.253125	0.148750
-42.761002	46.482002	1122.277954	10.215625	14.183750	-6.177500
-86.193001	90.889999	1110.016968	4.935000	11.414375	-9.651250
-129.503006	100.223000	1103.916992	1.413125	2.541875	-11.501875
-77.775002	73.139000	1122.704956	-1.666875	-7.507500	-6.558125
-72.406998	45.811001	1135.088013	-3.762500	-0.739375	-10.325000
-71.858002	38.247002	1133.014038	-0.328125	-0.870625	-14.459375
-36.904999	54.167999	1122.704956	5.464375	-2.786875	-17.504375
-4.026000	82.106003	1112.213013	3.801875	4.961250	-14.161875
-87.168999	93.695999	1123.010010	-1.290625	8.513750	-11.326875
-69.235001	94.183998	1108.979980	-0.459375	0.122500	-11.283125
-105.164001	106.750000	1085.250977	-1.229375	-0.323750	-13.510000
-47.336002	84.607002	1112.884033	-3.570000	-7.306250	-9.139375
-44.225002	130.052002	1116.483032	-3.920000	-1.264375	-4.773125
-84.362999	81.251999	1110.932007	-0.945000	5.521250	-2.651250
-92.659004	80.886002	1112.274048	-0.840000	-3.955000	-0.704375
-54.716999	76.372002	1105.503052	-0.971250	-5.110000	-1.671250
-70.515999	60.878002	1110.139038	1.763125	-3.780000	-3.241875
-57.584000	72.101997	1105.320068	4.178125	-5.245625	-4.261250
-67.404999	88.328003	1095.255005	1.820000	-5.866875	-0.923125
-52.704002	73.321999	1106.784058	-1.798125	-4.418750	0.568750
-44.347000	61.792999	1114.165039	-1.001875	-5.013750	0.205625
-50.202999	80.581001	1122.338989	1.001875	-5.875625	0.170625
-30.195000	79.300003	1121.667969	1.548750	-4.558750	0.450625
-43.005001	85.217003	1120.082031	2.485000	-2.366875	0.581875
-29.768000	76.311005	1125.023071	1.400000	-3.281250	2.135000
-26.291000	85.583000	1124.229980	0.966875	-1.579375	2.546250
-47.640999	77.042999	1119.716064	0.249375	0.490000	2.178750
-41.663002	66.551003	1122.583008	-0.551250	-2.511250	3.128125
-36.295002	78.812004	1122.156006	-0.463750	-2.362500	2.677500
-24.400000	50.325001	1132.770020	-1.850625	0.813750	4.011875
-34.831001	65.879997	1140.516968	0.056875	-0.035000	2.870000
-43.005001	81.862000	1118.922974	1.102500	-0.857500	3.316250
-48.190002	77.470001	1116.910034	1.824375	0.503125	4.239375
-48.068001	74.907997	1103.368042	-0.017500	-1.067500	0.975625
-43.126999	62.403000	1100.073975	-3.469375	-3.793125	2.065000
-38.612999	48.068001	1110.566040	-1.841875	-3.631250	2.218125
-34.221001	54.961002	1103.428955	1.439375	-3.180625	0.323750
-60.329002	57.767002	1110.870972	0.258125	-3.552500	2.633750
-38.979000	49.471001	1125.693970	-0.660625	-5.547500	2.813125
-52.826000	57.278999	1118.801025	1.426250	-3.911250	2.738750
-45.201000	52.948002	1142.591064	0.188125	-7.175000	4.401250
-6.649000	51.850002	1147.593018	-2.778125	-6.164375	3.941875
-14.945000	32.330002	1133.624023	-1.631875	-0.310625	1.216250
-16.226000	21.289000	1155.645020	1.837500	-0.140000	2.226875
-3.782000	62.403000	1134.295044	5.123125	-0.166250	-0.490000
-7.686000	70.943001	1110.139038	3.648750	2.953125	-1.338750
-27.572001	78.018997	1108.858032	2.305625	3.080000	-4.773125
-52.033001	85.827003	1082.201050	-1.448125	1.295000	-6.571250
-81.618004	62.037003	1107.454956	-3.023125	1.076250	-4.046875
-58.621002	49.166000	1125.999023	-3.740625	-1.019375	-1.080625
-12.932000	35.806999	1134.295044	-4.318125	-3.587500	0.975625
-2.928000	26.657000	1142.468994	-2.318750	-2.323125	-2.773750
-7.991000	53.070000	1140.333984	1.798125	-0.787500	-7.323750
-19.459000	56.181000	1119.411011	1.933750	1.211875	-7.621250
-38.430000	75.822998	1115.933960	1.010625	0.748125	-8.365000
-29.219000	48.007000	1112.518066	-1.815625	0.371875	-7.091875
-57.889000	68.137001	1112.030029	-1.194375	1.373750	-8.828750
-50.569000	75.822998	1122.521973	-1.194375	-1.763125	-5.608750
-8.906000	48.861000	1126.609009	-2.598750	-1.763125	-5.608750
-8.906000	48.861000	1128.622070	-1.964375	-2.121875	-3.027500
0.427000	28.059999	1128.622070	1.360625	-0.765625	-5.293750
-8.357000	40.138000	1117.337036	5.827500	-0.805000	-5.530000
-17.995001	62.159000	1106.357056	7.516250	0.568750	-5.958750
-20.252001	68.137001	1101.537964	3.272500	-0.945000	-4.948125
-37.209999	71.796997	1101.537964	0.988750	-0.875000	-5.088125
-66.856003	94.733002	1107.942993	-3.211250	-2.423750	-6.825000
-16.531000	59.292000	1130.025024	-8.701875	-6.562500	-0.507500
29.889999	21.533001	1127.036011	-3.276875	-3.924375	-1.251250
6.161000	38.552002	1130.879028	3.701250	-1.750000	-5.490625
1.708000	46.786999	1121.607056	4.869375	-2.371250	-2.432500
3.172000	56.913002	1118.739990	5.928125	-0.385000	-2.935625
-26.352001	60.573002	1123.802979	2.695000	0.796250	-3.364375
-19.093000	58.560001	1122.765991	-0.271250	-0.542500	-1.308125
-17.446001	48.250999	1122.156006	1.063125	1.019375	-2.301250
-12.505000	45.506001	1119.105957	1.561875	0.498750	-1.251250
-26.474001	45.383999	1114.225952	2.397500	1.163750	-1.544375
5.490000	64.965004	1120.509033	11.130000	-8.483125	-2.401875
-0.305000	77.348000	1109.895020	15.526875	-5.149375	-1.176875
14.030000	98.881004	1103.551025	12.083750	-3.976875	1.876875
4.697000	118.523003	1161.073975	0.630000	2.572500	-1.452500
-21.045000	71.613998	1127.280029	-3.972500	4.585000	-1.500625
-40.015999	59.719002	1116.117065	-2.183125	0.765625	-2.550625
-25.986000	60.878002	1123.192993	2.664375	-2.366875	-2.970625
-7.808000	87.230003	1134.112061	5.687500	-2.366875	-3.810625
-10.004000	104.554001	1143.932983	4.033750	-1.036875	-3.797500
17.202000	106.384003	1131.367065	0.336875	-0.783125	-2.213750
-24.705000	91.987999	1128.255981	-1.697500	5.989375	-2.773750
-32.146999	74.298004	1118.191040	-1.321250	4.488750	-1.071875
-27.389000	84.424004	1105.259033	-0.179375	2.393125	-1.347500
-40.992001	77.530998	1098.792969	0.398125	1.531250	-0.879375
-15.128000	82.777000	1100.196045	1.706250	-1.194375	-0.358750
-27.145000	87.291000	1112.640015	1.277500	-1.312500	-1.400000
-11.102000	74.298004	1122.094971	0.555625	-2.183125	0.787500
-24.766001	81.313004	1125.633057	2.056250	-1.824375	-1.583750
-12.444000	92.232002	1127.036011	1.518125	-3.084375	-2.187500
-3.355000	91.865997	1135.149048	1.513750	-0.599375	-2.323125
-20.618000	92.110001	1130.452026	-0.122500	1.120000	-1.806875
-20.007999	81.313004	1123.315063	-0.966875	2.034375	-0.126875
-22.204000	70.943001	1124.473999	1.203125	2.765000	-1.246875
-29.829000	76.677002	1115.140991	2.633750	0.835625	-1.872500
-22.753000	89.669998	1117.947021	2.174375	-0.087500	-2.008125
-5.978000	82.654999	1114.225952	0.958125	-0.533750	-0.730625
-11.773000	81.251999	1113.859985	0.752500	0.581875	-0.975625
-12.200000	88.389000	1106.844971	0.879375	-0.061250	-0.713125
-22.875000	86.132004	1111.847046	1.968750	-0.240625	-0.647500
-28.731001	91.805000	1111.420044	2.148125	-1.019375	-0.879375
-28.914000	94.245003	1130.025024	1.268750	-2.187500	-1.273125
-26.962000	99.125000	1121.484985	0.363125	-2.305625	-2.257500
-14.640000	98.209999	1118.374023	0.319375	-0.450625	-2.708125
-27.389000	101.808998	1131.306030	-0.166250	-0.306250	-2.240000
-19.215000	92.049004	1123.681030	1.229375	1.338750	-1.526875
-45.445000	89.669998	1122.156006	3.963750	5.324375	-3.701250
-61.122002	97.173004	1107.638062	2.839375	3.023125	-2.616250
-66.368004	99.430000	1102.148071	1.386875	0.323750	-3.285625
-44.713001	96.989998	1107.211060	-0.590625	-2.660000	-1.496250
-59.048000	90.219002	1110.505005	0.498750	0.070000	-1.207500
-78.323997	100.100998	1118.557007	2.821875	-1.802500	-1.666875
-60.512001	110.348999	1118.251953	1.194375	-2.690625	0.148750
-56.669003	98.149002	1126.243042	0.048125	-0.476875	0.555625
-60.146000	97.356003	1123.619995	0.096250	0.612500	-1.273125
-61.732002	96.501999	1124.962036	-0.866250	0.131250	-0.975625
-44.042000	90.097000	1114.165039	0.105000	0.700000	-0.892500
-67.892998	94.123001	1116.177979	0.743750	1.338750	-2.205000
-53.070000	91.865997	1107.577026	-1.443750	-0.735000	0.958125
-47.885002	79.117004	1114.165039	-0.026250	1.111250	0.573125
-49.043999	74.907997	1107.821045	1.080625	0.551250	0.358750
-49.166000	87.473999	1107.515991	0.406875	-0.262500	0.673750
-48.556000	76.311005	1117.214966	0.835625	-0.420000	0.336875
-51.118000	88.450005	1103.001953	0.271250	-0.958125	0.730625
-46.786999	86.742004	1109.651001	-0.520625	-2.489375	0.345625
-23.241001	78.018997	1104.953979	-0.004375	-2.931250	-0.004375
-43.066002	81.069000	1100.440063	-0.542500	-2.016875	-1.846250
-27.938000	66.124001	1106.357056	0.691250	-4.900000	-0.866250
-9.211000	70.943001	1113.799072	2.900625	-4.856250	-2.935625
-4.209000	65.453003	1121.607056	1.824375	-4.431875	-2.625000
-8.296000	68.869003	1127.341064	2.646875	-3.062500	-3.189375
-22.326000	75.212997	1133.197021	2.607500	-3.368750	-4.589375
-10.614000	68.990997	1134.234009	1.942500	-3.473750	-3.819375
-16.653000	78.263000	1128.805054	2.161250	-3.425625	-5.031250
0.488000	77.225998	1130.208008	1.058750	-1.960000	-5.254375
-6.893000	80.215004	1115.933960	-0.336875	-0.805000	-4.956875
-20.191000	70.943001	1108.431030	-1.181250	-1.653750	-5.044375
-10.553000	80.336998	1111.359009	-0.481250	-2.590000	-5.390000
-2.013000	73.261002	1123.864014	2.375625	-3.145625	-7.857500
-3.782000	87.840004	1121.180054	4.366250	-2.607500	-9.769375
2.379000	129.197998	1097.572998	-0.196875	-0.328125	-9.966250
-18.483000	108.030998	1106.357056	-6.790000	-2.506875	-5.880000
-3.050000	92.475998	1103.612061	-8.798125	-4.025000	-3.224375
-7.442000	82.777000	1112.822998	-6.807500	-4.226250	-5.674375
12.017000	69.052002	1120.265015	-1.837500	-3.762500	-7.564375
-0.793000	88.999001	1116.787964	0.914375	-2.231250	-12.293750
5.551000	78.385002	1127.890015	3.093125	-3.351250	-11.405625
7.869000	102.785004	1115.994995	5.289375	-0.608125	-14.131250
-19.337000	112.667000	1115.812012	-1.706250	0.651875	-10.845625
-1.708000	87.413002	1121.607056	-1.706250	-4.265625	-6.041875
-1.708000	80.581001	1108.369995	-2.839375	-4.265625	-6.041875
15.006001	80.581001	1108.369995	-0.336875	-4.340000	-9.489375
6.161000	74.237000	1109.589966	-1.750000	-3.981250	-10.193750
-11.102000	94.733002	1113.067017	-2.463125	-7.625625	-10.154375
14.457000	93.573997	1134.782959	-1.365000	-5.508125	-7.144375
7.991000	107.116005	1132.526001	1.461250	-3.272500	-6.260625
15.921000	115.960999	1138.442993	4.305000	-2.502500	-4.453750
9.211000	136.091003	1136.796021	5.477500	-2.056250	-2.270625
22.814001	135.298004	1134.234009	4.908750	-1.872500	-3.889375
-3.233000	133.468002	1124.535034	4.760000	1.815625	-5.827500
-2.928000	127.978004	1119.716064	3.797500	-1.443750	-4.099375
16.775000	121.939003	1119.959961	2.362500	-2.559375	-3.906875
-13.298000	118.461998	1117.276001	2.646875	-0.931875	-4.256875
11.651000	113.154999	1129.109985	5.228125	-5.775000	-4.055625
22.936001	120.474998	1121.607056	6.238750	-3.832500	-6.050625
16.775000	125.598999	1099.769043	1.666875	4.738125	-3.828125
-5.551000	96.746002	1119.532959	-1.391250	1.181250	-0.420000
3.843000	87.901001	1120.570068	0.166250	-1.255625	2.091250
-13.054000	101.382004	1117.398071	3.088750	2.773750	2.170000
-0.610000	104.493004	1121.363037	2.870000	-0.026250	7.988750
18.971001	126.331001	1127.097046	4.913125	-2.747500	9.576875
35.501999	103.273003	1137.650024	1.448125	-1.570625	11.252500
22.509001	104.066002	1137.527954	-1.321250	2.261875	12.175625
12.993000	83.264999	1129.659058	-0.730625	3.876250	10.298750
14.640000	81.129997	1120.143066	-3.797500	1.684375	10.106250
14.884000	64.293999	1113.067017	-4.694375	2.244375	5.543125
17.507000	73.016998	1115.629028	-1.561875	3.552500	3.088750
0.610000	87.961998	1098.609985	-1.662500	3.605000	4.221875
-5.185000	82.472000	1106.600952	-1.356250	1.238125	6.330625
14.701000	97.966003	1104.099976	0.472500	-0.730625	4.633125
16.348000	84.912003	1112.334961	-3.793125	-1.338750	7.245000
21.410999	68.320000	1123.131958	-3.976875	-2.506875	4.904375
29.219000	78.018997	1116.117065	-1.907500	0.813750	3.731875
-15.494000	76.127998	1122.217041	-1.181250	1.658125	3.635625
18.300001	84.850998	1138.869995	-0.153125	-7.131250	0.966875
50.386002	101.870003	1127.951050	0.420000	-5.267500	0.761250
22.509001	85.155998	1119.045044	1.194375	4.690000	-0.021875
-9.272000	61.915001	1130.817993	1.465625	4.265625	-3.683750
-2.013000	66.306999	1134.295044	-1.990625	2.891875	1.745625
3.721000	47.945999	1142.834961	0.669375	3.880625	0.630000
25.437000	53.862999	1126.670044	1.649375	0.713125	2.730000
22.814001	64.903999	1121.363037	-1.837500	4.760000	8.518125
-12.444000	41.418999	1111.114990	0.481250	7.113750	8.575000
-23.485001	60.451000	1099.646973	2.463125	3.128125	6.943125
-23.546000	73.809998	1094.279053	-0.398125	0.411250	4.204375
-42.212002	63.623001	1102.208984	-2.642500	-0.411250	0.879375
-37.637001	61.366001	1118.739990	-3.631250	-3.215625	-0.643125
-37.820000	60.146000	1118.984009	-2.016875	-1.618750	-1.631875
-37.820000	58.926003	1118.130005	1.430625	-1.242500	-1.229375
2.867000	48.739002	1124.779053	0.485625	-3.053750	-0.962500
-5.185000	52.887001	1114.896973	-0.179375	0.100625	-5.315625
4.880000	53.680000	1121.729004	-2.918125	-1.299375	-3.333750
0.976000	51.118000	1134.966064	-7.643125	-2.187500	0.778750
-14.396000	40.320999	1116.177979	-6.072500	-1.596875	-3.145625
-18.177999	29.585001	1119.532959	-2.065000	-1.890000	-3.005625
-12.627000	40.382000	1125.389038	-0.323750	1.605625	-6.098750
-3.843000	34.831001	1135.270996	1.260000	-3.434375	-10.368750
7.320000	57.035000	1111.847046	2.913750	-2.568125	-11.011875
3.050000	64.598999	1095.926025	2.690625	3.027500	-9.196250
-40.869999	44.652000	1101.110962	-1.085000	5.184375	-1.946875
-18.239000	53.375000	1112.640015	0.144375	0.380625	-3.185000
6.649000	57.767002	1112.884033	3.880625	1.653750	-11.326875
-10.492001	107.909004	1110.932007	2.734375	-2.734375	-14.306250
27.755001	84.362999	1113.677002	1.360625	-5.197500	-16.244375
38.063999	118.523003	1120.630981	3.298750	-1.863750	-19.757500
-14.823000	111.446999	1118.495972	5.381250	0.542500	-20.190624
-23.363001	72.285004	1119.593994	2.695000	-5.748750	-12.691875
-38.917999	69.540001	1122.277954	3.491250	-5.512500	-6.676250
-34.831001	79.117004	1151.436035	4.226250	-8.295000	-1.658125
-12.749001	77.958000	1146.921997	3.241875	-4.773125	0.056875
-26.596001	113.033005	1136.734985	4.213125	0.621250	-1.771875
-1.159000	113.826004	1166.686035	0.520625	-2.611875	6.842500
20.069000	86.193001	1160.890991	-1.596875	-3.403750	15.662500
8.235000	61.427002	1123.802979	1.347500	4.195625	10.101875
-16.409000	78.323997	1090.070068	1.443750	7.910000	4.046875
-12.139000	92.232002	1086.654053	0.000000	2.931250	-0.494375
9.333000	102.418999	1082.140015	-1.605625	-1.023750	2.598750
17.507000	72.346001	1101.110962	-3.591875	1.785000	9.603125
-21.655001	57.950001	1101.781982	-1.343125	3.036250	8.443750
-30.439001	61.427002	1120.386963	0.870625	-3.062500	5.048750
16.469999	90.279999	1131.916016	1.058750	-4.698750	2.441250
-1.708000	94.367004	1135.149048	1.430625	-0.122500	-0.726250
-7.991000	99.369003	1128.682983	1.063125	-0.892500	-3.276875
4.636000	86.925003	1116.117065	-0.218750	0.008750	-0.765625
-17.873001	87.840004	1113.372070	2.318750	1.916250	-2.458750
-11.651000	71.003998	1102.331055	1.019375	-0.971250	-1.658125
0.976000	70.515999	1092.815063	1.181250	-1.168125	-1.338750
-24.095001	66.368004	1108.979980	1.557500	-1.338750	-2.773750
2.806000	61.487999	1112.457031	1.557500	-1.338750	-2.773750
2.806000	61.487999	1129.109985	0.603750	-3.241875	-0.476875
3.904000	63.074001	1129.109985	0.170625	-3.180625	-0.525000
12.871000	54.595001	1128.011963	0.385000	-1.990625	-0.135625
15.372000	80.093002	1137.100952	-1.640625	-0.354375	-0.284375
8.113000	45.139999	1127.341064	-3.049375	0.420000	1.505000
-5.734000	36.539001	1122.217041	-0.061250	1.163750	1.500625
7.808000	80.276001	1135.453979	0.625625	-3.640000	-0.568750
23.546000	88.389000	1133.258057	0.341250	-2.590000	0.350000
7.198000	93.390999	1126.120972	1.955625	-0.831250	-1.548750
5.368000	95.526001	1127.280029	-0.721875	-2.086875	-1.627500
5.612000	73.383003	1122.338989	-1.229375	0.791875	-0.997500
4.880000	70.028000	1123.864014	-0.481250	-0.192500	-2.769375
-11.346000	51.362000	1095.864990	0.651875	-0.949375	-2.471875
1.098000	63.928001	1099.525024	0.280000	0.717500	-0.616875
23.485001	53.131001	1113.494019	-3.626875	0.271250	-2.248750
16.287001	40.809002	1126.426025	-5.525625	-1.028125	-4.519375
17.202000	62.769001	1134.905029	-4.725000	-2.695000	-6.632500
0.976000	52.887001	1127.707031	-3.710000	0.616875	-3.994375
-22.387001	69.905998	1124.229980	0.717500	0.866250	-0.643125
-8.540000	66.124001	1122.644043	3.281250	1.986250	1.015000
-7.442000	59.841000	1118.984009	1.846250	0.568750	-0.914375
6.710000	47.153000	1121.607056	-0.700000	-0.061250	-3.185000
4.880000	36.050999	1119.716064	-0.008750	1.308125	-2.760625
-2.989000	43.737000	1118.618042	3.128125	-0.039375	-2.498125
2.623000	66.673004	1104.099976	3.548125	-0.126875	-0.336875
1.952000	71.308998	1112.457031	-1.828750	2.388750	-0.096250
-12.688000	40.015999	1107.881958	-3.635625	0.647500	0.437500
-3.599000	38.552002	1111.603027	1.102500	-2.716875	-0.717500
-4.270000	48.799999	1119.045044	1.855000	-2.091250	-1.373750
5.978000	59.902000	1110.870972	1.461250	-2.865625	-1.058750
0.671000	59.292000	1123.985962	-0.945000	-1.820000	0.774375
10.187000	38.612999	1133.685059	-1.150625	-0.739375	0.918750
-11.773000	46.909000	1117.154053	0.931875	-1.115625	-0.647500
3.416000	52.154999	1122.217041	1.041250	-1.890000	0.341250
-4.575000	61.427002	1123.131958	1.618750	-1.211875	-0.153125
-6.710000	52.154999	1114.409058	2.423750	-2.288125	0.271250
14.335000	60.207001	1134.539062	1.373750	-2.091250	-0.971250
12.078000	64.355003	1133.135986	-1.058750	-0.691250	-1.426250
-2.928000	54.716999	1123.802979	-0.726250	-0.638750	-0.861875
8.296000	55.510002	1123.864014	-0.870625	-0.857500	-0.564375
-3.111000	46.909000	1111.847046	0.341250	-0.214375	-0.249375
-7.198000	46.604000	1118.068970	2.568125	-1.544375	-0.735000
19.153999	68.381004	1116.544067	2.143750	-1.828750	-0.371875
-6.283000	62.281002	1108.796997	1.999375	0.441875	0.328125
12.749001	48.678001	1126.060059	3.320625	-3.180625	0.118125
26.840000	58.865002	1122.765991	1.610000	-2.528750	-0.472500
-7.930000	57.462002	1115.629028	0.809375	0.253750	-1.920625
4.880000	58.316002	1122.827026	1.684375	-1.566250	-1.115625
6.344000	69.417999	1123.254028	0.485625	-1.723750	-1.653750
6.466000	50.996002	1120.082031	-0.393750	-0.980000	-1.378125
2.074000	53.741001	1127.097046	0.901250	-0.826875	-2.248750
18.056000	60.817001	1118.678955	1.509375	-0.993125	-2.568125
7.503000	59.414001	1113.859985	2.279375	0.262500	-2.244375
11.529000	59.535999	1111.664062	1.640625	-1.391250	-3.053750
13.176001	53.862999	1099.159058	0.739375	-1.710625	-3.793125
4.209000	60.207001	1103.916992	1.505000	-2.143750	-5.013750
9.577000	56.608002	1114.469971	-0.210000	-3.675000	-5.670000
13.481000	51.850002	1124.352051	-2.121875	-4.851875	-6.995625
17.629000	47.214001	1134.051025	-2.441250	-3.810625	-7.490000
28.914000	37.027000	1135.942017	0.332500	-2.765000	-5.617500
27.205999	42.517002	1137.161987	3.136875	-1.513750	-7.026250
22.204000	48.250999	1125.876953	2.563750	0.236250	-7.608125
5.490000	57.645000	1110.810059	2.603125	0.525000	-9.502500
10.797000	52.154999	1104.405029	0.398125	-0.240625	-8.645000
16.165001	40.931000	1132.037964	-1.806875	-0.774375	-7.787500
26.352001	51.056999	1128.011963	-1.347500	-0.870625	-10.845625
23.668001	42.151001	1127.524048	-0.332500	1.111250	-9.996875
22.326000	35.075001	1130.635010	0.931875	1.780625	-9.209375
11.407001	45.872002	1120.386963	2.843750	1.903125	-10.049375
1.403000	51.179001	1119.593994	3.241875	3.031875	-9.331875
12.444000	54.839001	1110.139038	3.701250	1.553125	-8.041250
-3.050000	77.165001	1103.916992	3.040625	1.365000	-7.358750
13.054000	69.845001	1118.984009	2.091250	-1.041250	-6.636875
21.410999	71.980003	1119.593994	3.290000	-1.093750	-9.056250
5.002000	75.457001	1128.317017	3.246250	0.310625	-7.087500
13.603000	82.777000	1127.157959	4.703125	-0.971250	-7.433125
-2.196000	88.999001	1120.386963	2.813125	0.218750	-5.547500
-11.895000	75.701004	1129.049072	1.728125	0.083125	-2.848125
2.318000	72.834000	1127.524048	2.668750	-1.990625	-3.469375
7.259000	86.498001	1132.098999	2.909375	-0.735000	-0.997500
8.174000	86.132004	1108.552979	3.753750	2.835000	-1.391250
-2.867000	88.145004	1104.222046	3.648750	1.885625	0.065625
12.444000	100.650002	1114.409058	3.473750	-0.380625	0.503125
2.501000	90.584999	1104.649048	2.336250	1.588125	-0.332500
-23.485001	101.382004	1110.993042	0.953750	0.861875	-0.310625
3.050000	105.347000	1111.664062	0.940625	-2.970625	-1.881250
-2.379000	106.750000	1105.380981	2.922500	-0.669375	-2.506875
-23.302000	133.834000	1114.042969	6.090000	-0.888125	-4.029375
7.808000	137.067001	1114.225952	4.051250	-2.117500	-4.020625
-23.790001	130.356995	1122.217041	2.541875	0.266875	-2.804375
2.196000	123.890999	1125.145020	3.618125	-2.336250	-3.889375
1.220000	137.250000	1135.088013	2.555000	-1.579375	-2.699375
6.527000	123.464005	1130.208008	0.411250	-1.776250	-1.268750
-7.686000	106.384003	1128.378052	-0.708750	2.716875	-2.716875
-13.115000	111.569000	1131.733032	-0.336875	1.666875	-1.404375
9.699000	112.362000	1125.510986	1.058750	-0.345625	0.551250
-6.100000	108.335999	1122.765991	1.181250	3.097500	2.607500
11.590000	114.375000	1111.114990	1.513750	3.141250	3.946250
-18.666000	101.015999	1104.405029	1.513750	3.141250	3.946250
-18.666000	101.015999	1111.603027	0.301875	5.311250	5.805625
-5.490000	100.772003	1111.603027	0.848750	4.685625	5.556250
-32.879002	124.745003	1107.271973	3.574375	3.968125	5.569375
-12.627000	126.514000	1122.277954	3.058125	-1.006250	12.600000
-24.827000	149.999008	1118.984009	4.536875	0.371875	15.067500
-34.709000	145.302002	1112.945068	2.795625	1.382500	18.790625
6.405000	129.686005	1125.937988	0.560000	-1.614375	23.327499
20.007999	102.418999	1129.292969	0.118125	4.287500	21.271250
-13.908000	116.632004	1122.461060	0.848750	8.968750	21.341249
-46.970001	104.005005	1090.313965	3.486875	8.811250	17.981251
-31.720001	98.637001	1080.859009	-0.240625	2.025625	17.294374
-20.130001	122.792999	1071.098999	-4.261250	-0.083125	15.942500
-19.642000	69.357002	1100.440063	-5.442500	-0.358750	13.483750
-15.311000	83.692001	1107.577026	-6.015625	-2.953125	10.605000
-33.062000	30.927000	1137.284058	-8.277500	-0.713125	11.475625
-10.309000	20.069000	1154.729980	-4.523750	-5.866875	5.626250
-1.037000	45.628002	1130.635010	-6.295625	-6.173125	1.973125
-43.615002	17.202000	1137.833008	-4.939375	0.021875	1.645000
-9.089000	52.521000	1135.332031	-0.315000	-4.340000	-6.269375
-28.304001	64.293999	1119.228027	-1.439375	-1.286250	-10.880625
-35.319000	64.171997	1134.112061	1.478750	-1.395625	-13.540625
-0.671000	47.702000	1120.082031	1.176875	0.354375	-14.463750
-29.889999	31.232000	1119.838013	-0.870625	3.123750	-12.201875
-1.220000	20.191000	1106.296021	-0.529375	-0.756875	-15.833125
3.355000	37.698002	1077.748047	-1.767500	-5.394375	-18.926250
-22.753000	60.938999	1044.320068	-1.085000	-8.229375	-16.344999
-3.721000	78.080002	1043.222046	2.025625	-12.595625	-12.665625
-14.091001	85.827003	1050.847046	1.999375	-17.184999	-10.430000
45.628002	86.986000	1093.485962	1.631875	-22.408751	-13.103125
64.965004	104.431999	1154.242065	-1.273125	-24.491249	-13.571250
57.278999	102.480003	1095.620972	4.475625	-26.582500	-13.260625
75.029999	98.820000	1129.171021	7.459375	-27.811874	-12.390000
95.098999	117.547005	1152.229004	9.738750	-23.944374	-13.212500
89.487000	106.811005	1136.430054	11.252500	-22.448126	-15.815625
155.244995	116.448997	1153.510010	7.966875	-25.033751	-13.510000
136.639999	136.822998	1120.447998	7.765625	-22.041250	-14.805000
161.955002	156.953003	1147.287964	-0.196875	-27.986876	-10.578750
189.832001	158.234009	1154.912964	-9.795625	-31.871876	-9.896250
199.653000	104.614998	1172.420044	-10.145625	-25.405624	-11.340000
233.447006	100.284004	1166.380981	-3.740625	-14.140000	-10.880625
243.695007	144.326004	1117.154053	3.500000	-11.825625	-17.701250
196.175995	111.141998	1147.776001	8.260000	-2.913750	-11.685625
201.483002	116.570999	1102.514038	4.125625	6.650000	-7.494375
180.742996	131.393997	1088.972046	2.043125	12.320000	-6.448750
147.498001	131.272003	1073.234009	-0.892500	20.264999	-5.166875
169.884995	69.662003	1080.005005	0.087500	24.539375	-8.920625
170.678009	105.103004	1093.729980	5.753125	22.084999	-15.238125
126.270004	98.514999	1113.921021	13.278125	22.373751	-22.496250
180.376999	114.314003	1112.151978	18.934999	15.658125	-25.528126
64.355003	192.393997	1083.909058	7.498750	-5.565000	-15.916250
170.556000	167.932999	1083.482056	1.168125	-2.073750	-24.941875
110.898003	162.076996	1100.073975	7.805000	10.618125	-29.776251
109.433998	183.792999	1113.738037	6.321875	12.372500	-26.079374
77.592003	170.494995	1114.836060	0.516250	8.343125	-14.791875
59.170002	166.285995	1079.578003	4.515000	6.260625	-7.021875
74.907997	169.397003	1082.811035	-0.253750	4.392500	7.603750
63.867001	143.654999	1105.747070	-3.377500	6.365625	21.931875
87.535004	128.343994	1109.773071	-2.471875	4.112500	27.825001
89.059998	138.835999	1129.902954	-2.712500	4.340000	30.695000
86.498001	135.664001	1115.812012	-1.159375	7.945000	27.230000
67.954002	139.994995	1119.045044	-1.701875	8.505000	25.598125
73.016998	138.591995	1118.374023	-1.417500	6.444375	20.321875
57.340000	139.811996	1104.099976	-1.872500	2.826250	17.110624
72.590004	159.514999	1115.202026	-2.248750	-0.275625	15.395625
79.117004	147.681000	1101.171997	-3.381875	0.245000	14.840000
71.918999	152.438995	1110.505005	-4.987500	1.636250	17.495625
75.091003	126.086998	1118.191040	-1.776250	1.588125	14.573125
78.750999	137.371994	1103.001953	1.386875	-0.586250	9.196250
71.431000	137.494003	1114.592041	3.570000	1.299375	5.420625
70.028000	140.056000	1113.859985	5.455625	2.104375	3.902500
75.579002	148.412994	1112.518066	0.485625	-1.010625	4.865000
84.850998	134.322006	1116.239014	-2.349375	-0.424375	8.067500
87.778999	134.688004	1125.999023	-1.120000	1.365000	5.153750
71.003998	131.393997	1116.727051	-2.121875	1.806875	2.769375
62.890999	134.871002	1113.859985	-2.563750	-0.651875	2.187500
65.696999	140.604996	1106.600952	-1.859375	0.017500	0.866250
61.243999	128.893005	1112.213013	-2.515625	1.058750	2.625000
66.429001	128.222000	1113.005981	-1.115625	0.179375	2.598750
81.129997	132.065002	1117.458984	1.303750	0.595000	-1.063125
71.308998	126.575005	1114.104004	2.738750	0.590625	-2.616250
74.603004	138.470001	1112.151978	2.607500	-1.771875	-5.228125
84.729004	117.668999	1110.200073	0.914375	-0.385000	-7.896875
66.734001	120.963005	1112.030029	0.026250	-1.115625	-8.715000
77.104004	124.135002	1105.625000	-0.778750	-5.184375	-11.151875
84.485001	113.277000	1111.480957	-4.983125	-4.650625	-11.812500
61.061001	104.614998	1127.401978	-4.908750	-1.636250	-13.326250
54.229000	104.431999	1119.776978	-2.165625	-0.428750	-14.945000
60.695000	121.146004	1119.228027	-2.148125	-1.041250	-15.470000
71.003998	111.446999	1112.701050	-2.279375	-1.229375	-15.470000
72.346001	92.354004	1120.997070	-2.279375	-1.286250	-14.927500
72.346001	94.306000	1113.555054	-3.456250	-1.286250	-14.927500
67.954002	94.306000	1113.555054	-2.594375	-1.767500	-14.380625
68.930000	107.482002	1112.884033	1.526875	-2.576875	-15.273125
74.237000	107.970001	1106.357056	-0.472500	-3.946250	-15.102500
71.980003	103.456001	1109.041016	-1.225000	-1.802500	-15.833125
76.311005	110.348999	1116.483032	-0.498750	-2.117500	-16.126249
93.878998	119.987000	1113.372070	-0.813750	-3.403750	-14.590625
78.080002	114.436005	1114.225952	-1.789375	-1.439375	-13.273750
75.029999	91.439003	1115.690063	-1.386875	-1.911875	-12.026875
71.492004	98.759003	1125.999023	0.564375	-3.801875	-13.658750
72.711998	128.100006	1128.438965	1.089375	-4.440625	-12.630625
92.903000	122.915001	1120.753052	-1.802500	-1.623125	-10.320625
77.348000	116.570999	1120.813965	-4.449375	0.651875	-9.187500
87.351997	108.640999	1118.862061	-3.766875	-0.826875	-6.155625
65.941002	113.642998	1107.942993	-0.231875	1.785000	-6.059375
50.874001	128.832001	1112.213013	0.026250	3.202500	-3.438750
69.235001	116.693001	1115.140991	0.161875	0.498750	2.655625
80.031998	104.249001	1119.411011	1.098125	0.791875	5.188750
61.000000	102.846001	1120.447998	-0.113750	0.113750	9.226875
74.786003	101.748001	1126.487061	3.342500	-1.190000	8.216250
64.233002	130.052002	1125.816040	4.615625	-1.793750	6.960625
79.056000	136.701004	1113.799072	3.115000	-1.299375	10.206875
70.089005	134.444000	1115.567993	3.093125	1.369375	11.624375
70.393997	129.076004	1104.282959	2.336250	-0.030625	14.485625
78.018997	135.968994	1108.552979	3.290000	-0.354375	14.485625
66.063004	122.610001	1111.603027	3.688125	0.927500	16.528749
65.879997	135.054001	1111.297974	4.366250	1.067500	18.313749
53.497002	143.289001	1122.400024	4.633125	2.415000	18.038124
79.788002	122.975998	1127.707031	5.105625	-0.105000	21.424376
91.134003	130.356995	1117.458984	4.340000	1.688750	19.779375
68.625000	113.947998	1113.738037	3.648750	4.646250	18.843124
49.043999	151.828995	1109.589966	1.828750	4.051250	16.353750
45.506001	122.487999	1105.442017	-1.146250	1.596875	14.433125
86.070999	91.865997	1116.300049	-0.691250	0.888125	15.960000
81.862000	88.938004	1103.672974	2.646875	0.765625	15.553125
67.709999	91.317001	1100.562012	6.908125	2.874375	11.672500
56.913002	115.107002	1108.552979	6.995625	0.306250	11.865000
68.197998	129.563995	1113.921021	6.317500	-1.172500	12.101250
76.432999	101.320999	1117.214966	3.863125	-1.032500	11.707500
50.813000	111.081001	1126.853027	2.769375	-1.295000	4.733750
48.678001	129.380997	1119.166992	1.400000	-2.673125	-0.735000
69.600998	103.639000	1127.097046	-1.159375	-3.920000	-0.393750
97.234001	103.456001	1137.894043	-3.351250	-3.311875	-3.587500
73.261002	91.682999	1137.406006	-2.992500	-0.161875	-8.260000
77.287003	113.521004	1125.389038	-1.824375	-0.520625	-12.770625
60.756001	106.932999	1103.062988	-3.548125	0.262500	-13.326250
67.892998	106.262001	1106.600952	-3.075625	-1.693125	-15.885625
77.530998	113.154999	1096.597046	-5.998125	-3.276875	-19.258751
72.285004	79.422005	1108.125977	-6.142500	-4.182500	-21.074375
85.643997	96.989998	1111.237061	-2.703750	-5.516875	-25.532499
84.424004	104.737000	1109.956055	-2.016875	-4.790625	-26.276251
84.667999	124.745003	1111.664062	-1.837500	-1.470000	-26.075001
93.390999	111.141998	1116.360962	-3.990000	-1.430625	-24.093124
81.556999	101.931000	1119.655029	-6.645625	-0.748125	-23.331875
69.600998	101.260002	1118.739990	-6.037500	-1.111250	-24.119375
60.329002	96.014000	1113.067017	-5.110000	-1.662500	-22.408751
72.590004	103.395004	1115.079956	-6.435625	-2.283750	-22.736876
86.132004	93.513000	1108.552979	-7.039375	-2.660000	-20.299999
80.215004	88.571999	1115.750977	-5.009375	-1.102500	-19.516874
81.129997	101.992004	1110.749023	-5.652500	-1.461250	-17.670626
67.466003	87.596001	1113.432983	-5.105625	-1.102500	-15.111250
65.270004	93.513000	1110.566040	-4.423125	-0.953750	-14.765625
77.835999	91.500000	1124.718018	-5.280625	-2.436875	-10.871875
60.146000	89.914001	1130.269043	-1.474375	-1.474375	-9.590000
70.333000	95.098999	1120.630981	1.513750	-0.765625	-7.958125
62.159000	120.353004	1123.558960	1.312500	-0.586250	-3.959375
72.163002	108.153000	1118.862061	0.791875	-0.214375	-1.767500
75.579002	102.053001	1122.827026	0.818125	0.551250	1.334375
66.794998	109.007004	1115.994995	1.723750	-0.752500	2.279375
80.886002	103.821999	1116.177979	2.244375	0.599375	3.517500
58.255001	112.301003	1127.768066	1.588125	2.524375	5.757500
66.184998	97.356003	1134.661011	0.892500	0.035000	10.395000
84.607002	94.916000	1124.046997	4.270000	0.328125	10.014375
60.207001	108.092003	1111.724976	3.906875	2.073750	10.473750
68.990997	90.767998	1109.833984	4.720625	0.870625	13.383125
65.514000	96.684998	1107.515991	5.201875	1.058750	12.639375
80.641998	89.243004	1119.349976	2.690625	-0.525000	15.540000
108.214005	71.248001	1126.243042	4.003125	-0.240625	15.470000
81.679001	73.566002	1111.176025	2.139375	1.701875	14.826875
75.945000	59.779999	1112.761963	2.051875	0.914375	17.119375
60.268002	66.794998	1107.698975	5.320000	1.290625	15.588125
77.225998	89.609001	1116.239014	2.712500	0.083125	16.279375
91.500000	72.101997	1122.338989	0.726250	-0.271250	17.303125
83.264999	68.076004	1116.360962	3.893750	1.019375	12.617500
80.520004	90.951004	1118.922974	3.941875	0.971250	12.770625
60.389999	101.260002	1117.885986	5.543125	1.111250	12.153750
81.801003	82.594002	1122.217041	4.410000	-1.032500	10.858750
85.095001	95.403999	1114.286987	2.594375	0.949375	8.058750
53.313999	96.501999	1107.211060	1.754375	2.292500	2.751875
77.165001	86.803001	1103.368042	0.634375	-0.385000	0.796250
74.664001	89.059998	1116.544067	0.017500	-0.870625	-1.465625
