A_X[mg]	A_Y[mg]	A_Z[mg]	G_X[dps]	G_Y[dps]	G_Z[dps]	
-10.675000	36.660999	1109.712036	3.784375	-1.133125	-2.909375
-17.019001	31.964001	1121.911987	3.736250	-2.730000	-3.386250
18.971001	37.393002	1125.510986	2.384375	-4.200000	-3.412500
8.967000	38.552002	1130.269043	1.308125	0.459375	-2.073750
-15.921000	22.936001	1119.899048	0.997500	1.631875	-2.388750
-11.651000	24.888000	1112.457031	0.118125	0.148750	0.140000
1.098000	27.267000	1123.131958	-0.126875	-0.883750	3.176250
8.357000	21.777000	1111.847046	-0.126875	-2.165625	3.749375
7.930000	53.070000	1113.250000	2.314375	-2.165625	3.749375
7.930000	53.070000	1099.463989	3.049375	-2.896250	7.450625
9.760000	48.799999	1099.463989	2.419375	-0.533750	10.622500
-0.793000	59.292000	1108.308960	1.824375	0.468125	15.627500
-8.357000	55.754002	1113.921021	0.245000	-1.391250	19.906250
0.549000	52.338001	1130.452026	0.879375	-1.505000	19.258751
-5.917000	58.621002	1136.613037	3.185000	-0.389375	19.092501
-10.492001	49.348999	1132.037964	1.229375	-2.178750	17.968124
4.636000	54.351002	1132.037964	-2.673125	-0.774375	13.221250
8.967000	43.493000	1134.295044	-4.383750	-0.179375	7.984375
5.490000	38.430000	1126.243042	-3.613750	1.032500	4.519375
18.544001	39.040001	1125.083984	-0.459375	1.750000	2.095625
1.220000	47.153000	1118.435059	-1.544375	2.778125	3.780000
6.649000	44.774002	1107.942993	-2.126250	0.573125	7.332500
-15.921000	65.209000	1119.593994	0.166250	0.818125	5.263125
-0.854000	38.247002	1107.454956	-0.070000	1.750000	2.183125
-11.895000	17.568001	1109.773071	1.080625	-2.786875	1.605625
-3.111000	24.948999	1112.822998	-1.312500	-5.368125	6.400625
5.795000	28.487000	1118.191040	-3.110625	-6.111875	12.766250
17.690001	19.580999	1119.593994	-1.820000	-6.365625	16.537500
6.893000	25.802999	1102.514038	1.246875	-3.797500	19.079374
17.568001	44.834999	1116.544067	0.678125	-4.585000	26.359375
16.592001	38.735001	1126.303955	1.771875	-1.793750	26.761875
19.032000	15.555000	1123.375977	2.804375	-2.555000	27.636875
27.999001	26.352001	1128.682983	-1.080625	-4.690000	28.297501
22.326000	32.635002	1122.217041	-5.871250	-0.980000	29.290625
17.812000	3.538000	1113.188965	-4.921875	-1.999375	26.573750
21.045000	22.631001	1118.801025	-7.826875	-2.454375	27.221251
16.469999	23.668001	1109.041016	-11.427500	-2.559375	29.093750
21.533001	18.910000	1107.394043	-12.726875	-1.715000	26.993750
43.371002	-23.485001	1125.206055	-7.936250	-2.786875	19.442499
24.156000	-20.191000	1111.420044	-5.009375	-2.240000	16.756250
30.316999	-26.657000	1126.303955	-1.601250	-4.895625	14.931875
41.358002	-19.215000	1124.839966	1.544375	-7.135625	12.783750
51.300999	-19.276001	1131.610962	3.447500	-4.379375	11.318125
20.130001	-11.285000	1123.681030	4.090625	-1.461250	11.646250
41.418999	-19.825001	1124.352051	3.648750	-2.436875	12.289375
26.718000	1.525000	1101.598999	6.116250	0.651875	10.158750
30.805000	2.440000	1122.827026	7.481250	-0.525000	12.420625
39.101002	22.631001	1115.140991	8.614375	0.437500	9.043125
20.007999	10.553000	1132.281982	5.018125	1.421875	9.703750
47.336002	7.198000	1143.140015	1.767500	-3.994375	7.953750
51.545002	-1.647000	1138.260010	-0.896875	-4.077500	-3.377500
70.698997	-31.964001	1141.980957	-1.605625	-0.205625	-12.950000
27.084000	-1.220000	1141.920044	-1.977500	1.238125	-19.923750
48.007000	-15.982000	1125.450073	0.555625	0.490000	-22.106874
43.431999	13.664001	1120.692017	2.200625	6.453125	-23.681875
6.039000	-13.359000	1115.933960	2.887500	8.509375	-24.867500
24.461000	-7.869000	1112.761963	2.183125	2.165625	-26.363750
34.342999	-11.834001	1107.333008	0.109375	4.081875	-28.879375
17.934000	-1.586000	1113.311035	1.785000	5.337500	-31.530624
30.378000	12.932000	1124.718018	0.529375	-0.778750	-34.991249
36.904999	-19.642000	1117.581055	-3.093125	-1.872500	-34.028751
37.576000	11.712000	1101.294067	0.385000	0.831250	-38.674999
-0.183000	-9.089000	1117.764038	0.476875	4.856250	-42.061249
-0.366000	-11.834001	1130.940063	-1.723750	0.800625	-38.679375
13.908000	-8.967000	1112.761963	-1.036875	-2.388750	-41.982498
-5.124000	-20.557001	1154.364014	0.459375	0.787500	-46.340000
14.945000	0.305000	1138.381958	1.509375	6.173125	-49.949375
-7.747000	3.477000	1144.909058	1.671250	7.752500	-48.689377
-3.111000	-15.128000	1152.350952	4.357500	4.353125	-48.142502
-0.915000	14.518001	1134.234009	3.745000	-0.039375	-44.887501
0.732000	-2.806000	1144.725952	4.169375	-4.283125	-47.810001
19.215000	16.165001	1127.280029	4.970000	-6.663125	-48.072498
37.758999	-6.161000	1134.539062	0.144375	-6.689375	-46.571877
40.687000	-32.390999	1113.067017	-0.402500	-3.745000	-50.181252
10.736000	43.431999	1101.721069	-1.080625	3.766875	-58.625000
5.978000	15.921000	1092.815063	2.826250	8.907500	-61.788124
-33.367001	50.447002	1097.328979	6.676250	7.783125	-60.248123
-36.112000	52.338001	1086.227051	6.251875	0.669375	-52.500000
-7.198000	57.401001	1099.098022	7.708750	0.498750	-46.584999
-8.784000	88.571999	1088.545044	6.505625	-3.115000	-39.143124
-1.647000	59.414001	1098.792969	0.008750	-3.062500	-29.596874
9.272000	49.105000	1111.420044	0.761250	-4.593750	-31.123751
21.350000	31.476000	1119.289062	-2.900625	-7.017500	-28.616875
10.797000	36.050999	1134.355957	-1.010625	-4.554375	-29.426250
1.769000	17.690001	1128.195068	1.631875	-5.775000	-26.267500
23.607000	29.646000	1143.505981	0.608125	-7.183750	-26.355000
22.204000	34.952999	1112.151978	-0.455000	-2.235625	-30.725624
18.788000	5.734000	1140.822021	-3.517500	1.400000	-39.340000
16.714001	44.957001	1156.560059	-3.346875	0.227500	-47.031250
28.548000	42.577999	1131.489014	-7.980000	-7.389375	-32.628750
33.611000	20.191000	1133.989990	-7.227500	-7.774375	-20.606251
36.904999	8.845000	1115.446045	-6.641250	0.183750	-19.280624
5.124000	22.326000	1131.183960	-3.723125	3.845625	-17.902500
8.723001	17.690001	1110.505005	0.280000	4.458125	-19.941250
27.632999	4.270000	1115.385010	1.636250	-1.776250	-20.264999
40.504002	-5.063000	1114.225952	5.188750	-2.502500	-20.221251
11.346000	23.912001	1106.479004	7.223125	0.739375	-22.439375
41.846001	45.811001	1123.254028	3.128125	-5.818750	-16.651251
35.441002	42.334000	1117.520020	1.155000	-4.729375	-11.230625
31.110001	45.079002	1133.745972	0.389375	-0.446250	-11.143125
22.631001	34.709000	1128.500000	-4.650625	0.367500	-2.725625
37.698002	-9.882000	1142.286011	-2.257500	-0.288750	-1.041250
27.632999	-11.468000	1122.034058	3.766875	2.887500	-4.095000
20.434999	8.723001	1120.326050	4.003125	1.680000	-3.097500
37.332001	27.755001	1117.764038	4.615625	-0.678125	2.953125
45.811001	31.049000	1103.855957	5.180000	1.579375	7.748125
24.095001	47.702000	1122.338989	3.482500	-0.791875	17.351250
32.146999	39.833000	1105.076050	3.740625	-1.054375	21.665001
42.272999	23.912001	1130.513062	8.067500	2.397500	23.078125
2.379000	54.411999	1129.598022	1.684375	-1.863750	28.678125
26.291000	33.367001	1144.604004	-2.804375	-1.540000	29.723749
10.126000	33.062000	1123.071045	-0.673750	2.835000	25.025000
-0.061000	42.028999	1141.126953	-1.583750	0.721875	26.061874
23.729000	30.805000	1137.527954	0.096250	-0.840000	25.046875
6.832000	29.524000	1130.513062	0.096250	4.410000	16.594376
19.398001	60.146000	1120.875000	2.340625	4.410000	16.594376
19.398001	60.146000	1116.300049	-0.376250	3.858750	16.620625
21.594000	52.764999	1116.300049	-0.262500	2.730000	22.793751
30.195000	29.829000	1115.079956	1.820000	2.187500	26.372499
23.851000	37.637001	1087.568970	0.205625	2.170000	30.686251
26.291000	15.433001	1103.855957	2.108750	3.228750	32.278751
19.459000	35.441002	1103.978027	3.701250	1.054375	34.868752
-2.013000	37.453999	1107.942993	0.498750	-0.647500	39.593750
11.346000	22.936001	1123.619995	2.270625	-2.209375	38.968124
13.420000	33.549999	1115.385010	1.763125	-3.101875	40.254375
17.629000	47.824001	1123.192993	0.415625	-3.132500	42.192501
29.889999	32.208000	1116.239014	2.428125	-3.320625	42.721874
20.557001	34.831001	1120.630981	-0.398125	0.686875	43.732498
30.195000	20.007999	1133.501953	-3.320625	2.463125	40.127499
27.572001	17.446001	1117.641968	-1.890000	6.090000	39.580624
0.793000	9.943000	1129.598022	-0.573125	6.803125	35.297501
5.307000	11.102000	1111.053955	0.555625	4.208750	34.361252
-3.721000	23.546000	1128.378052	-1.102500	1.050000	32.707500
4.209000	-7.686000	1125.816040	-3.946250	-3.246250	29.942499
-18.117001	-3.721000	1097.695068	-2.082500	-2.786875	25.353125
-18.177999	-11.163000	1107.454956	-0.599375	-6.440000	27.146875
-9.699000	-45.139999	1118.130005	0.118125	-4.900000	25.891251
6.466000	-16.104000	1130.940063	-0.783125	-2.699375	21.398125
13.481000	10.614000	1132.160034	-2.393125	-1.706250	20.243126
1.647000	-17.812000	1129.963989	-4.125625	-0.323750	18.055626
-26.535000	-23.607000	1138.321045	-3.325000	-0.490000	13.527500
-39.589001	-18.117001	1110.383057	-1.470000	-1.159375	10.718750
-25.010000	-9.211000	1115.994995	0.861875	-5.950000	8.045625
-14.945000	-3.599000	1104.770996	3.666250	-3.040625	4.466875
-2.684000	2.623000	1124.535034	3.876250	-2.261875	3.578750
23.424000	3.538000	1120.692017	2.887500	-6.216875	2.340625
28.121000	-6.649000	1126.853027	-2.196250	-5.280625	4.173750
33.977001	-38.674000	1116.117065	-3.241875	-4.322500	2.296875
31.232000	-29.829000	1105.990967	-2.467500	-0.380625	-2.139375
48.312000	-34.647999	1122.888062	-0.481250	-3.198125	-2.900625
52.033001	5.795000	1115.385010	3.963750	-3.399375	-8.417500
50.874001	30.805000	1106.113037	0.888125	-1.268750	-6.405000
66.734001	43.920002	1114.896973	1.400000	-3.136875	-4.252500
87.778999	54.900002	1108.919067	2.397500	-2.485000	-4.252500
91.317001	46.299000	1116.117065	2.953125	-4.221875	-2.716875
94.000999	72.590004	1125.510986	3.587500	-4.116875	-5.971875
100.100998	68.807999	1122.034058	3.596250	-1.920625	-8.338750
51.118000	78.385002	1121.302002	0.717500	3.425625	-9.830625
25.559000	82.411003	1113.188965	-1.601250	2.795625	-9.638125
21.716000	71.675003	1115.323975	-0.966875	-0.997500	-9.257500
44.957001	62.525002	1115.567993	0.818125	-4.585000	-6.685000
56.608002	97.539001	1133.318970	1.872500	-6.116250	-7.004375
65.696999	75.822998	1131.671997	0.984375	-5.385625	-7.144375
60.024002	51.545002	1119.655029	0.131250	-3.806250	-6.496875
63.135002	23.241001	1107.211060	2.804375	-3.381875	-10.648750
67.649002	48.494999	1125.633057	0.376250	-1.443750	-6.199375
36.966000	42.151001	1142.530029	-1.680000	0.083125	-7.568750
35.380001	13.542000	1135.393066	-1.255625	0.739375	-7.835625
26.413000	39.771999	1136.552002	0.087500	-0.595000	-9.590000
38.307999	24.156000	1132.281982	0.459375	-1.098125	-12.044375
43.859001	49.227001	1139.785034	-1.198750	-0.708750	-10.158750
19.459000	16.348000	1122.277954	-1.246875	2.340625	-10.386250
21.960001	3.111000	1120.082031	1.496250	1.509375	-11.672500
15.555000	27.267000	1116.300049	0.713125	0.730625	-12.915000
10.309000	0.793000	1114.225952	0.196875	0.621250	-13.838125
23.302000	19.580999	1130.086060	0.157500	-0.336875	-12.197500
28.853001	3.416000	1122.827026	-1.299375	2.130625	-9.205000
16.165001	-3.355000	1124.962036	2.126250	2.213750	-10.911250
17.323999	20.679001	1120.570068	0.783125	0.918750	-11.033750
13.176001	8.845000	1126.853027	-2.883125	0.844375	-6.991250
13.786000	8.906000	1128.134033	-1.776250	2.428125	-6.663125
5.551000	-15.311000	1114.348022	-2.800000	4.729375	-4.375000
-13.176001	-13.054000	1114.104004	-1.697500	4.943750	-6.676250
0.000000	-19.825001	1106.600952	0.135625	2.043125	-6.041875
11.590000	-8.540000	1120.082031	1.850625	0.673750	-8.010625
21.655001	-14.091001	1118.862061	0.910000	-0.450625	-8.330000
12.627000	0.610000	1123.681030	1.089375	-0.586250	-7.516250
-14.457000	24.339001	1117.458984	2.874375	4.252500	-12.477500
-9.089000	15.067000	1122.583008	1.474375	1.964375	-9.900625
11.895000	-17.323999	1117.337036	0.013125	-3.377500	-8.255625
32.757000	-30.134001	1121.729004	1.636250	-2.327500	-8.601250
20.191000	-10.065001	1127.341064	1.653750	-2.388750	-7.791875
50.630001	-25.132000	1116.848999	0.748125	-2.773750	-5.298125
47.945999	-24.400000	1111.907959	-1.238125	0.258125	-5.556250
13.664001	-28.548000	1117.458984	-0.310625	1.343125	-10.150000
14.152000	0.366000	1126.974976	1.601250	-4.501875	-9.791250
40.748001	9.577000	1123.619995	2.375625	-5.932500	-9.843750
52.094002	5.368000	1127.097046	0.783125	-2.913750	-7.468125
41.541000	2.562000	1143.750000	-1.771875	-3.346875	-4.156250
30.561001	35.136002	1143.384033	-6.825000	-3.360000	-1.771875
58.926003	2.074000	1121.484985	-12.105625	0.122500	4.116875
55.265999	-71.796997	1118.739990	-10.618125	4.226250	4.646250
34.587002	-83.752998	1101.660034	-3.714375	4.655000	-3.828125
45.628002	-56.973999	1105.136963	0.371875	-0.083125	-5.350625
46.848000	-29.646000	1102.270020	3.180625	-0.503125	-6.483750
28.548000	-24.583000	1099.708008	3.154375	1.133125	-6.890625
19.947001	-12.810000	1119.166992	1.653750	-2.301250	-4.685625
20.862000	-38.612999	1122.217041	4.003125	1.260000	-4.891250
15.494000	-8.174000	1129.415039	5.661250	1.491875	-6.116250
24.217001	-5.856000	1119.655029	5.661250	1.491875	-1.566250
24.217001	-23.912001	1126.120972	3.504375	-3.364375	-1.566250
48.739002	-23.912001	1126.120972	2.905000	-1.732500	-2.016875
49.776001	-10.858000	1116.604980	1.194375	-0.682500	0.424375
46.237999	-28.059999	1119.228027	-0.144375	0.538125	3.482500
77.104004	-25.620001	1122.583008	1.246875	-0.546875	4.156250
56.119999	-31.781000	1107.881958	0.962500	-0.192500	6.387500
60.207001	-11.529000	1122.277954	2.743125	-2.030000	6.326250
76.372002	-7.259000	1107.271973	4.213125	-0.665000	5.827500
59.658001	7.198000	1112.091064	3.220000	1.185625	7.542500
44.529999	16.775000	1116.971069	3.548125	-1.439375	8.745625
30.012001	40.809002	1111.114990	4.606875	0.030625	4.830000
46.360001	31.537001	1119.655029	3.500000	-1.623125	6.523125
63.074001	30.256001	1111.603027	5.083750	-1.833125	7.188125
57.278999	15.860001	1126.791992	4.738125	-0.336875	6.593125
59.535999	34.465000	1126.426025	5.783750	0.551250	3.915625
45.506001	66.246002	1117.337036	5.394375	1.010625	3.145625
56.242001	24.705000	1123.437012	4.226250	2.607500	7.459375
35.685001	76.067001	1122.400024	5.149375	0.533750	4.108125
55.449001	82.044998	1133.868042	3.145625	-1.133125	2.673125
58.743000	83.447998	1129.598022	3.220000	0.660625	6.304375
36.417000	69.905998	1105.625000	3.416875	6.006875	3.482500
3.538000	80.215004	1120.326050	1.890000	3.040625	2.441250
32.330002	84.362999	1130.452026	0.507500	-1.741250	0.293125
16.714001	59.963001	1120.265015	1.378125	1.176875	-0.726250
-14.518001	69.784004	1130.025024	1.500625	1.859375	-3.320625
4.209000	69.295998	1121.484985	0.783125	-0.275625	-3.272500
15.738000	74.237000	1114.896973	1.456875	0.875000	-2.878750
9.333000	57.218002	1107.454956	3.167500	0.411250	-4.396875
17.385000	82.411003	1117.885986	2.830625	-3.635625	-1.859375
25.681000	62.464001	1111.237061	4.326875	-3.933125	-1.763125
33.733002	71.431000	1115.263062	4.987500	-3.889375	-0.564375
20.557001	64.598999	1125.266968	6.558125	-3.438750	-5.293750
25.315001	79.910004	1127.584961	5.035625	-3.395000	-7.918750
22.570000	90.767998	1128.500000	3.276875	-1.951250	-3.609375
2.440000	61.000000	1122.948975	1.242500	1.159375	-2.187500
6.527000	60.756001	1131.123047	-1.159375	-0.953750	-1.763125
25.315001	55.083000	1134.905029	-0.665000	-2.419375	-2.843750
31.659000	43.371002	1118.008057	0.363125	-0.542500	-4.252500
11.468000	73.809998	1135.942017	-0.179375	1.260000	-7.231875
18.117001	69.052002	1126.609009	-1.833125	-0.100625	-5.963125
11.285000	55.144001	1126.303955	-1.693125	0.861875	-2.852500
-12.139000	49.776001	1124.596069	-0.293125	1.500625	-4.401250
14.762000	44.347000	1142.164062	0.332500	-0.332500	-0.148750
-0.122000	28.548000	1119.411011	1.150625	1.977500	-0.634375
-24.705000	-5.124000	1112.091064	-0.332500	3.666250	-1.658125
-29.889999	17.141001	1110.078003	1.933750	1.601250	0.472500
-46.604000	14.884000	1116.604980	2.988125	1.478750	0.538125
-15.982000	21.655001	1123.558960	1.548750	-1.452500	2.874375
-26.779001	29.463001	1115.873047	-0.052500	1.890000	3.517500
-29.280001	22.143000	1123.558960	-0.008750	0.564375	3.963750
-16.592001	60.938999	1120.326050	2.633750	-0.861875	0.896875
-22.997000	85.948997	1111.968994	3.819375	0.490000	0.857500
-7.442000	89.243004	1127.890015	3.045000	-0.240625	-1.006250
-5.002000	92.659004	1122.217041	1.938125	1.426250	-2.738750
-12.749001	83.752998	1130.269043	1.246875	2.835000	-4.873750
-27.328001	83.447998	1116.544067	1.063125	1.750000	-9.870000
-36.539001	97.112000	1107.333008	0.595000	1.198750	-12.258750
-7.320000	94.793999	1117.214966	0.415625	-1.548750	-12.586875
10.675000	89.669998	1124.656982	-0.507500	-1.929375	-10.683750
12.322001	81.923004	1114.165039	-0.748125	-0.577500	-12.451250
22.143000	91.317001	1117.581055	3.163125	-0.485625	-16.834999
22.936001	106.139999	1095.376953	2.830625	-0.997500	-17.766874
33.916000	103.211998	1115.629028	2.384375	-1.951250	-18.690001
42.151001	108.030998	1115.690063	2.480625	-2.918125	-18.305000
43.066002	103.578003	1128.255981	1.076250	-4.007500	-14.367500
51.545002	91.195000	1129.842041	0.568750	-1.277500	-13.702500
33.793999	94.611000	1119.411011	0.424375	0.840000	-12.600000
18.544001	76.494003	1124.046997	1.684375	1.216250	-12.442500
17.812000	87.961998	1119.349976	3.325000	-1.369375	-14.962500
24.948999	116.632004	1122.094971	2.051875	-2.835000	-17.928749
51.850002	102.480003	1118.251953	-0.980000	-2.288125	-14.315000
29.707001	71.858002	1121.363037	-2.191875	0.078750	-12.608750
29.402000	53.802002	1116.544067	-0.205625	0.608125	-10.189375
33.977001	53.313999	1108.065063	6.033125	0.918750	-5.897500
17.812000	66.124001	1108.369995	8.675625	2.288125	-4.550000
0.732000	84.973000	1101.843018	4.571875	0.341250	-3.530625
7.747000	71.918999	1121.363037	2.283750	-0.853125	-0.271250
11.529000	82.716003	1130.635010	2.222500	-2.279375	2.428125
6.588000	75.091003	1123.192993	-0.188125	-3.736250	6.785625
5.490000	60.024002	1147.348999	2.485000	-6.173125	9.603125
14.091001	82.411003	1140.516968	5.726875	-4.690000	10.679375
22.264999	90.219002	1118.435059	3.548125	-3.206875	9.944375
39.040001	97.783005	1115.812012	2.021250	-1.041250	6.011250
29.707001	85.034004	1109.162964	0.853125	-1.325625	9.047500
29.280001	50.874001	1094.462036	-1.172500	0.328125	13.116250
18.239000	47.945999	1101.110962	-1.491875	1.264375	12.814375
24.583000	61.000000	1099.586060	-0.511875	-1.198750	12.967500
45.323002	42.090000	1117.581055	-1.649375	-4.624375	14.581875
51.423000	40.748001	1126.487061	-2.371250	-3.924375	16.030001
31.476000	54.778000	1113.615967	-3.093125	1.754375	14.201250
3.721000	32.513000	1132.953003	-3.228750	3.351250	12.888750
4.880000	51.056999	1121.607056	-1.522500	-1.986250	11.987500
18.666000	38.247002	1115.385010	-1.500625	-1.859375	14.122500
7.381000	38.552002	1109.162964	-0.822500	-0.958125	16.454374
13.237000	14.457000	1126.303955	-3.241875	-2.826250	17.688126
19.215000	-4.392000	1129.292969	-4.064375	-2.113125	18.729376
1.586000	-0.671000	1128.011963	-4.064375	-2.113125	19.840626
1.586000	8.113000	1126.547974	-3.591875	-3.705625	19.840626
8.235000	8.113000	1126.547974	-6.107500	-3.858750	20.597500
5.002000	29.219000	1120.997070	-6.199375	-1.859375	18.506250
-3.599000	50.691002	1140.883057	-3.583125	-3.495625	15.911875
11.346000	48.678001	1121.180054	-3.053750	-2.708125	13.457500
10.126000	50.507999	1130.269043	-5.477500	-0.490000	11.803750
-5.734000	41.663002	1124.412964	-2.668750	-0.634375	8.544375
-10.919000	48.373001	1132.098999	0.433125	-2.078125	9.012500
11.285000	48.312000	1132.037964	-1.185625	-2.887500	7.791875
13.420000	21.655001	1133.989990	-0.476875	-0.380625	5.162500
13.786000	28.487000	1141.005005	1.540000	0.415625	1.855000
23.241001	42.577999	1133.075073	0.538125	2.270625	-2.480625
7.564000	33.977001	1129.354004	-0.800625	3.893750	-5.696250
20.007999	35.501999	1132.953003	1.050000	1.435000	-6.720000
9.333000	44.834999	1120.143066	2.336250	3.863125	-5.919375
5.368000	45.506001	1128.072998	2.786875	3.338125	-4.908750
15.982000	57.096001	1131.123047	5.678750	-0.039375	-5.713750
21.410999	74.419998	1115.202026	4.628750	2.384375	-7.323750
15.799000	69.417999	1111.297974	1.351875	3.578750	-8.045625
15.372000	72.528999	1111.664062	0.831250	1.728125	-9.660000
32.330002	64.233002	1104.893066	0.126875	1.308125	-9.423750
20.557001	81.496002	1119.959961	3.460625	2.489375	-13.453125
16.836000	91.987999	1115.446045	3.793125	1.260000	-13.405000
25.193001	119.071999	1116.787964	3.552500	-0.984375	-15.631875
32.635002	120.902000	1111.237061	2.905000	-1.277500	-18.278749
38.247002	113.033005	1098.792969	-1.566250	1.159375	-17.613750
27.632999	95.038002	1111.907959	-2.283750	1.579375	-19.053125
41.846001	85.583000	1113.982056	0.218750	-1.561875	-18.663750
46.909000	94.000999	1114.592041	1.233750	-3.027500	-18.694374
56.547001	87.047005	1111.664062	0.004375	-2.642500	-14.376250
35.563000	96.075005	1123.254028	-2.218125	-1.806875	-9.581250
25.925001	55.449001	1125.389038	-1.745625	-0.949375	-9.813125
21.837999	40.869999	1127.157959	0.568750	0.542500	-11.790625
32.818001	39.894001	1124.108032	2.712500	-0.336875	-14.052500
21.533001	37.820000	1121.546021	3.823750	0.078750	-13.628125
31.171000	33.916000	1117.885986	2.699375	-0.043750	-10.609375
6.039000	20.252001	1121.363037	2.463125	-0.126875	-7.402500
27.999001	33.793999	1123.010010	1.942500	-1.273125	-4.952500
31.537001	20.557001	1121.302002	0.468125	0.205625	-1.531250
15.616000	34.647999	1127.341064	1.430625	1.693125	-1.268750
33.855000	50.264000	1114.104004	0.459375	-0.717500	0.612500
17.934000	50.751999	1121.363037	-0.376250	0.870625	0.866250
26.169001	54.595001	1122.521973	-1.850625	-2.380000	1.299375
28.792000	39.771999	1114.531006	-1.946875	-3.176250	4.541250
2.501000	35.257999	1134.172974	1.925000	3.535000	5.950000
31.964001	42.272999	1125.389038	3.150000	-0.525000	6.728750
31.354000	55.144001	1112.640015	0.096250	-0.752500	8.824375
15.860001	26.291000	1122.094971	-0.065625	1.745625	9.139375
3.111000	40.015999	1115.385010	-0.192500	1.264375	10.145625
-25.986000	30.073000	1110.078003	0.214375	2.966250	8.553125
-18.361000	10.858000	1113.188965	1.588125	-0.835625	4.711875
-14.701000	27.694000	1121.484985	0.271250	-2.975000	3.867500
8.723001	12.078000	1120.936035	-1.470000	-3.657500	2.143750
1.525000	-5.856000	1126.487061	-2.213750	-3.574375	-0.091875
-0.244000	3.599000	1132.343018	-1.837500	-2.725625	-2.983750
-27.145000	2.440000	1115.812012	1.496250	1.785000	-7.118125
-40.869999	29.524000	1108.065063	-2.069375	-1.750000	-9.852500
0.366000	37.637001	1116.239014	-10.084375	-7.525000	-14.879375
43.554001	2.806000	1110.016968	-11.357500	-5.315625	-14.083125
36.050999	-7.747000	1116.239014	-5.210625	-0.555625	-13.273750
18.422001	-11.346000	1116.300049	-0.901250	-3.119375	-13.216875
38.003002	12.749001	1118.130005	-0.857500	-3.123750	-10.478125
44.225002	1.769000	1113.494019	0.415625	0.927500	-14.013125
25.254000	30.866001	1105.990967	1.286250	3.421250	-19.582500
45.445000	24.583000	1119.959961	8.137500	7.721875	-19.250000
44.042000	48.250999	1125.266968	19.897499	15.535625	-16.279375
-81.008003	99.125000	1122.521973	15.614375	11.738125	-14.533750
-16.042999	102.785004	1116.360962	5.376875	-8.920625	-5.201875
17.873001	94.976997	1111.541992	3.552500	-9.940000	2.165625
4.819000	119.743004	1113.005981	4.060000	1.824375	4.182500
-13.420000	71.248001	1126.670044	0.358750	-0.135625	7.393750
-2.074000	95.343002	1132.221069	3.473750	-5.057500	11.147500
-9.089000	108.702003	1114.225952	4.681250	-4.007500	12.390000
-17.263000	107.237999	1123.558960	0.980000	-7.179375	13.361250
12.566000	107.604004	1134.478027	-1.115625	-9.056250	13.090000
45.506001	103.578003	1134.599976	0.100625	-6.593125	14.472500
52.643002	92.780998	1145.458008	4.913125	-5.311250	19.543125
50.507999	134.565994	1128.011963	9.200625	-3.906875	18.064375
26.779001	115.045998	1131.610962	9.108750	-2.345000	23.240000
30.927000	123.525002	1144.482056	11.694375	-8.006250	25.808125
50.813000	123.585999	1128.744019	11.116875	-8.649375	21.993126
89.731003	95.709000	1119.532959	10.075625	-2.301250	23.012501
82.289001	121.024002	1100.683960	10.968125	2.922500	21.288750
58.987000	112.423004	1090.740967	6.116250	5.425000	21.030624
53.313999	94.550003	1100.256958	2.581250	4.799375	18.703125
55.875999	99.612999	1095.316040	0.380625	3.460625	15.133125
57.096001	71.065002	1099.769043	-0.205625	2.366875	11.589375
36.112000	88.816002	1122.583008	-0.525000	2.585625	4.611250
43.126999	62.403000	1126.853027	-2.384375	3.355625	4.147500
25.620001	80.031998	1138.138062	-1.623125	2.165625	2.056250
35.075001	76.860001	1135.576050	-2.839375	1.999375	2.349375
33.793999	59.779999	1119.716064	-2.668750	2.323125	4.550000
-5.307000	63.500999	1119.838013	-0.525000	2.200625	0.546875
11.834001	72.285004	1124.169067	-1.238125	0.695625	-3.158750
26.474001	71.980003	1141.553955	-2.016875	0.428750	-7.367500
14.213000	56.852001	1130.025024	-4.086250	2.813125	-10.561250
14.396000	54.778000	1127.645996	-6.265000	1.526875	-11.580625
14.518001	38.430000	1115.994995	-4.138750	2.887500	-11.506250
10.370000	33.306000	1112.274048	-1.251250	0.170625	-10.819375
20.496000	52.033001	1110.687988	-1.281875	-1.041250	-10.906875
10.797000	54.961002	1115.629028	-2.292500	0.603750	-11.221875
7.198000	56.364002	1122.583008	-2.406250	-0.962500	-11.926250
16.287001	53.924000	1108.735962	-2.318750	-1.990625	-11.471250
18.605000	60.938999	1107.394043	-1.623125	-1.054375	-13.055000
21.410999	47.091999	1101.598999	-1.229375	-1.435000	-13.199375
31.415001	60.633999	1093.912964	-1.141875	-1.723750	-13.269375
9.089000	68.137001	1098.305054	-1.491875	0.424375	-12.005000
-30.316999	72.651001	1115.567993	-0.135625	-0.520625	-9.703750
-12.261000	71.858002	1128.500000	1.338750	-6.715625	-11.571875
12.871000	102.236000	1135.515015	1.338750	-7.258125	-12.801250
25.742001	95.709000	1123.192993	-0.630000	-7.258125	-12.801250
25.742001	95.709000	1077.504028	-2.283750	-3.889375	-16.423750
38.917999	93.452003	1077.504028	-3.745000	-3.215625	-20.129375
52.826000	85.583000	1086.714966	-4.051250	-3.867500	-19.770624
36.234001	52.704002	1110.383057	-3.605000	-4.186875	-19.521250
23.973000	61.061001	1118.435059	-2.047500	-4.886875	-16.379999
29.707001	98.759003	1136.369019	-2.515625	-7.061250	-14.161875
68.625000	78.445999	1133.135986	-3.556875	-7.704375	-11.790625
54.290001	79.543999	1141.126953	-2.961875	-5.403125	-12.643750
29.707001	75.274002	1134.539062	-0.599375	-0.424375	-12.915000
37.271000	74.176003	1132.281982	3.552500	-3.491250	-15.802500
44.713001	106.384003	1151.863037	1.653750	-3.749375	-14.411250
75.762001	98.149002	1149.728027	1.750000	-2.537500	-10.351250
45.018002	101.320999	1139.175049	5.166875	1.356250	-8.938125
35.319000	87.108002	1139.358032	5.985000	2.038750	-4.939375
54.351002	105.469002	1127.584961	8.137500	0.826875	-2.528750
27.023001	103.700005	1122.338989	7.870625	3.381875	-0.122500
57.950001	104.919998	1122.765991	7.853125	0.048125	3.136875
45.688999	106.994003	1109.712036	8.513750	2.314375	3.675000
7.259000	102.480003	1113.067017	6.903750	2.839375	4.891250
42.151001	112.362000	1121.850952	7.336875	-2.808750	5.674375
52.277000	109.433998	1102.148071	6.654375	-1.001875	7.787500
55.083000	118.035004	1104.343994	5.127500	0.468125	8.089375
60.207001	122.549004	1115.202026	0.459375	4.471250	10.473750
8.235000	105.408005	1119.655029	-1.518125	7.293125	13.514375
-2.501000	100.162003	1118.618042	1.518125	-1.155000	11.838750
39.894001	99.552002	1139.052979	3.438750	-6.973750	14.096250
56.119999	111.874001	1133.562988	3.526250	-2.817500	15.750000
49.715000	98.697998	1131.794067	1.710625	1.916250	12.705000
59.353001	112.118004	1131.550049	-2.008125	1.141875	13.155625
58.804001	111.751999	1124.169067	-5.818750	5.862500	12.477500
16.653000	77.348000	1106.052002	-6.002500	9.821875	11.436250
-4.575000	78.690002	1111.237061	-3.416875	4.445000	10.290000
2.867000	83.752998	1095.072021	-0.621250	1.828750	8.588125
6.039000	85.522003	1107.394043	0.389375	-0.612500	10.876250
17.080000	87.840004	1110.016968	0.717500	-2.327500	8.465625
22.264999	85.278000	1121.790039	0.218750	-2.148125	7.665000
21.716000	93.025002	1110.626953	-0.923125	-2.817500	8.841875
29.219000	53.131001	1125.572021	-1.308125	-3.508750	9.533125
22.997000	81.862000	1128.195068	3.526250	-1.911875	4.256875
33.062000	101.320999	1120.143066	4.851875	-1.719375	2.677500
43.126999	96.989998	1119.472046	5.320000	-0.713125	3.049375
30.683001	108.214005	1108.187012	3.920000	2.047500	-1.023750
19.093000	87.108002	1109.346069	1.890000	1.435000	-1.251250
31.720001	82.594002	1118.922974	3.255000	0.818125	-2.883125
1.586000	70.820999	1107.577026	2.279375	2.537500	-3.753750
7.991000	76.677002	1127.828979	1.509375	-0.665000	-3.023125
28.121000	57.584000	1128.378052	-0.853125	0.608125	-2.686250
-9.821000	47.885002	1126.670044	1.163750	3.088750	-2.716875
10.187000	76.982002	1130.635010	2.152500	-1.417500	-2.345000
30.195000	54.351002	1130.573975	0.796250	-1.150625	1.347500
7.625000	89.121002	1123.558960	2.371250	2.108750	-1.841875
25.802999	78.507004	1115.750977	-1.408750	0.914375	-0.840000
12.200000	67.892998	1117.764038	-1.684375	3.066875	-2.240000
19.093000	70.698997	1120.509033	-2.358125	1.264375	-6.230000
21.777000	77.775002	1121.667969	-2.345000	-0.695625	-4.913125
19.886000	82.411003	1120.447998	0.266875	0.997500	-6.418125
21.350000	78.323997	1124.169067	-0.822500	0.288750	-3.333750
34.282001	87.291000	1109.223999	-1.461250	1.010625	-5.140625
17.323999	62.646999	1096.841064	-2.428125	1.093750	-7.551250
20.434999	74.419998	1114.896973	-0.135625	-3.836875	-8.815625
42.882999	85.522003	1113.128052	2.721250	-4.869375	-11.038125
19.703001	98.820000	1123.375977	0.971250	-0.739375	-8.242500
28.121000	91.805000	1131.367065	0.402500	-3.215625	-6.195000
42.212002	72.956001	1115.933960	1.404375	-1.128750	-6.387500
26.718000	85.278000	1109.041016	1.583750	3.031875	-6.496875
30.927000	75.212997	1109.468018	1.229375	-0.035000	-6.015625
31.354000	82.899002	1110.322021	0.529375	-2.078125	-5.359375
45.139999	73.993004	1109.589966	-1.636250	-3.145625	-2.485000
30.134001	59.048000	1140.456055	-0.161875	-3.285625	-4.261250
38.857002	102.113998	1142.957031	1.863750	-5.433750	-7.336875
42.395000	84.424004	1123.742065	2.878750	-1.881250	-6.269375
6.954000	107.299004	1115.506958	5.110000	-0.581875	-11.305000
34.282001	113.277000	1119.776978	-0.113750	0.091875	-9.922500
40.809002	75.579002	1122.704956	-1.925000	4.016250	-9.808750
38.917999	77.714005	1108.858032	-0.888125	1.863750	-12.700625
24.156000	72.163002	1105.442017	-3.193750	2.292500	-10.530625
33.244999	62.769001	1115.019043	-2.445625	-1.448125	-9.996875
37.881001	67.039001	1126.914062	-2.095625	-3.110625	-10.491250
55.265999	77.714005	1138.381958	-2.856875	-2.257500	-8.185625
19.215000	82.777000	1133.868042	-1.120000	0.336875	-8.365000
23.363001	79.666000	1142.224976	-1.356250	-1.141875	-7.927500
14.335000	89.974998	1125.083984	-3.692500	0.927500	-7.507500
4.209000	57.584000	1129.415039	-4.698750	1.229375	-4.825625
32.695999	55.021999	1121.363037	-2.515625	0.704375	-5.543125
16.348000	72.590004	1115.263062	-4.742500	2.515625	-4.475625
18.726999	34.952999	1104.161011	-4.913125	1.789375	-1.557500
-1.952000	46.482002	1125.266968	-2.607500	-0.350000	-3.377500
-11.651000	43.310001	1113.067017	-1.439375	-1.343125	-2.957500
40.931000	60.389999	1143.018066	3.171875	-4.484375	-2.266250
51.362000	67.161003	1135.393066	4.335625	-2.655625	-1.146250
1.952000	61.915001	1132.648071	3.688125	1.338750	1.019375
22.631001	36.539001	1118.008057	3.062500	1.413125	1.264375
11.895000	19.520000	1114.958008	-0.227500	-0.721875	2.681875
19.947001	30.134001	1109.956055	-0.153125	-3.128125	-0.647500
23.729000	49.348999	1110.443970	0.266875	-2.690625	-3.355625
6.832000	52.887001	1116.483032	0.708750	-6.234375	-1.960000
30.316999	71.065002	1123.437012	1.413125	-5.381250	-3.351250
40.564999	78.263000	1122.644043	1.640625	-2.445625	-4.033750
22.814001	82.289001	1112.091064	1.697500	-1.295000	-2.498125
47.396999	100.162003	1116.239014	1.636250	-1.933750	-3.040625
58.804001	82.228004	1099.952026	1.570625	-0.083125	-1.290625
18.361000	90.462997	1108.065063	1.780625	0.516250	-1.636250
60.633999	74.054001	1110.443970	1.780625	0.516250	0.931875
60.633999	50.569000	1102.208984	-1.666875	-5.880000	0.931875
59.902000	50.569000	1102.208984	-1.540000	-3.508750	1.098125
26.596001	72.895004	1102.758057	1.216250	-1.277500	-5.368125
59.170002	105.408005	1112.884033	1.719375	-7.096250	-6.921250
62.525002	112.301003	1123.315063	0.765625	-5.232500	-6.448750
51.179001	99.552002	1128.317017	0.673750	-3.561250	-9.511250
58.376999	83.814003	1124.473999	1.176875	-2.581250	-12.153750
32.390999	98.209999	1117.825073	2.086875	-1.610000	-17.937500
47.824001	102.541000	1113.005981	0.848750	-4.326875	-19.709375
44.896000	97.844002	1102.208984	2.541875	-2.528750	-24.946251
31.598000	79.056000	1091.473022	-0.100625	-1.540000	-32.716251
68.137001	76.006004	1105.197998	-3.338125	-9.034375	-35.218750
70.393997	68.747002	1093.791016	-0.682500	-11.296250	-34.230000
85.643997	64.171997	1119.166992	2.380000	-13.190625	-34.334999
88.876999	61.976002	1115.933960	3.675000	-13.523125	-33.005001
87.718002	78.690002	1117.885986	5.705000	-7.459375	-29.246876
62.525002	87.168999	1134.843994	7.192500	-6.457500	-25.856251
68.869003	102.601997	1125.999023	7.953750	-8.281875	-21.861876
81.129997	129.197998	1128.682983	7.708750	-8.474375	-18.340000
58.011002	114.436005	1144.359985	5.298125	-6.076875	-15.732500
90.889999	117.425003	1150.032959	4.353125	-6.181875	-9.603125
100.650002	105.834999	1124.901001	2.970625	-3.823750	-4.081875
98.087997	110.715004	1121.911987	3.543750	-1.295000	1.137500
95.891998	127.489998	1121.424072	5.101250	-2.231250	3.618125
125.293999	138.958008	1122.644043	1.981875	-5.547500	11.156250
103.639000	125.050003	1108.858032	3.508750	3.771250	10.040625
82.777000	150.365005	1115.385010	5.814375	7.175000	8.610000
97.966003	139.141006	1113.859985	8.693125	-1.290625	13.448750
106.201004	140.178009	1088.422974	10.329375	-0.568750	13.763750
84.729004	145.240997	1109.162964	10.215625	1.264375	8.894375
80.641998	166.347000	1108.125977	9.231250	0.656250	4.060000
85.705002	174.154999	1107.760010	7.350000	0.796250	4.130000
62.403000	168.055008	1108.858032	8.159375	-0.157500	3.364375
90.889999	189.770996	1105.442017	8.750000	-1.220625	7.533750
107.482002	201.666000	1101.537964	6.873125	-0.787500	10.180625
90.279999	173.240005	1112.518066	5.398750	0.590625	4.396875
129.990997	171.166000	1137.833008	3.937500	-5.722500	2.170000
125.293999	160.125000	1093.546997	3.106250	-3.272500	-2.585625
96.746002	173.117996	1089.338013	0.708750	-1.561875	-6.405000
103.028999	178.425003	1060.850952	1.076250	-2.362500	-8.789375
64.111000	181.048004	1045.296021	0.888125	-2.598750	-9.121875
44.652000	199.653000	1085.739014	1.461250	-4.344375	-9.887500
77.348000	205.875000	1088.118042	-1.404375	-9.559375	-7.542500
101.077003	176.290009	1088.605957	-1.207500	-13.155625	-3.854375
87.961998	211.242996	1127.828979	4.751250	-15.806875	-3.631250
117.120003	260.347992	1126.060059	3.548125	-17.176250	8.649375
206.667999	179.949997	1143.505981	1.968750	-12.324375	16.419374
162.503998	135.968994	1119.411011	1.133125	-1.929375	5.320000
150.731003	148.108002	1135.576050	-2.511250	-1.408750	0.358750
162.016006	125.965004	1127.097046	-2.060625	-5.162500	-0.319375
140.727005	109.800003	1093.119995	-1.505000	2.743125	-0.065625
144.264999	132.309006	1083.665039	-2.651250	2.590000	4.466875
127.489998	134.199997	1073.782959	-2.594375	-0.266875	3.600625
149.511002	165.554001	1005.341003	-2.340625	9.555000	6.391875
98.697998	217.587006	1070.610962	-7.818125	18.978750	9.598750
124.318001	172.386002	1164.734009	-11.821250	1.351875	8.286250
143.289001	104.005005	1188.584961	-9.345000	-14.218750	8.124375
159.697998	145.912003	1183.400024	-7.345625	-8.190000	3.600625
143.350006	105.712997	1180.105957	-6.116250	0.402500	11.694375
103.028999	122.366005	1153.448975	1.106875	9.126250	14.091875
124.135002	131.333008	1149.362061	5.687500	1.452500	18.431875
149.266998	104.859001	1122.217041	10.255000	-7.669375	25.458124
198.494003	130.113007	1110.505005	9.336250	-0.910000	25.501875
176.229004	113.216003	1106.052002	1.036875	7.380625	27.496876
151.097000	82.106003	1123.131958	2.988125	7.258125	30.651251
183.122009	102.663002	1102.514038	7.433125	9.502500	29.824375
109.983002	131.882004	1075.613037	7.385000	13.466250	29.163750
119.133003	127.124001	1113.921021	6.671875	4.169375	29.889999
175.375000	127.246002	1093.973999	3.565625	0.883750	32.366249
126.758003	151.828995	1105.197998	2.625000	9.712500	28.070000
160.979004	125.477005	1154.119995	4.033750	3.832500	31.473749
157.867996	122.610001	1134.478027	1.767500	5.267500	32.300625
138.104004	76.494003	1130.696045	-2.502500	8.662500	31.583124
104.066002	92.598000	1132.160034	-0.078750	11.042500	30.253124
91.927002	83.264999	1117.520020	-0.905625	9.800000	31.281250
100.833000	69.295998	1123.681030	2.012500	4.821250	31.771250
93.635002	75.822998	1112.091064	3.381875	1.846250	28.293125
97.294998	84.607002	1103.062988	0.411250	5.407500	27.418125
92.598000	94.611000	1095.620972	1.330000	2.183125	21.258125
83.631004	98.637001	1100.500977	0.568750	-0.682500	15.216250
123.403000	104.371002	1096.047974	-2.966250	-4.431875	9.800000
122.366005	96.684998	1083.909058	-3.871875	-3.049375	3.311875
100.223000	64.171997	1096.780029	-7.135625	-2.664375	5.862500
124.135002	61.854000	1114.225952	-6.645625	-1.019375	1.890000
96.196999	27.328001	1112.274048	-4.803750	5.136250	-2.463125
78.323997	81.801003	1119.532959	-1.063125	5.285000	-7.266875
85.948997	44.713001	1117.398071	-1.929375	2.349375	-9.594375
120.231003	46.237999	1128.744019	-1.028125	-0.087500	-9.423750
114.131004	41.968002	1129.598022	1.544375	1.211875	-12.464375
95.160004	46.177002	1105.869019	1.128750	8.251250	-14.354375
84.973000	85.583000	1096.230957	-2.135000	6.405000	-16.883125
88.023003	26.901001	1115.750977	-4.755625	-0.170625	-13.413750
117.608002	40.382000	1128.988037	0.818125	-3.176250	-16.021250
109.373001	95.221001	1118.801025	2.996875	2.051875	-20.195000
81.069000	96.624001	1113.555054	0.437500	2.953125	-18.401251
108.823997	98.576004	1113.615967	0.603750	0.301875	-17.762501
118.035004	84.545998	1107.333008	1.863750	-0.424375	-16.318750
98.697998	89.853004	1105.320068	-0.170625	1.592500	-13.286875
89.609001	63.379002	1090.436035	-2.231250	1.990625	-13.483750
61.915001	59.048000	1097.695068	-0.883750	1.697500	-12.928125
61.610001	78.750999	1105.747070	-0.883750	1.697500	-14.078750
99.125000	72.041000	1119.716064	-0.840000	-3.548125	-14.078750
99.125000	72.041000	1130.208008	-0.538125	-7.945000	-13.597500
109.250999	119.071999	1130.208008	2.104375	-6.479375	-14.730625
119.438004	91.195000	1132.160034	2.152500	-4.668125	-12.998125
92.170998	91.987999	1137.711060	2.760625	0.336875	-12.551875
139.811996	84.729004	1166.197998	5.442500	-2.616250	-17.565624
165.249008	105.834999	1117.154053	8.973125	1.430625	-27.326250
76.067001	131.576996	1117.276001	10.972500	3.959375	-26.053125
67.527000	167.932999	1076.833008	0.809375	7.188125	-11.112500
2.562000	131.455002	1061.644043	-21.070000	6.951875	3.622500
91.987999	49.897999	1093.364014	-28.923124	-1.176875	6.313125
98.759003	20.984001	1082.811035	-20.348125	-10.806250	0.389375
124.623001	54.716999	1072.928955	-4.650625	-0.070000	-9.576875
23.363001	91.072998	1104.343994	2.170000	3.539375	-12.740000
66.001999	76.737999	1114.165039	11.904375	-3.237500	-28.245001
65.879997	140.787994	1163.453003	15.855000	-7.590625	-19.621876
134.382996	153.598007	1189.500000	15.785000	-5.306875	-8.946875
139.507004	149.206009	1194.685059	11.462500	-0.918750	-8.614375
150.304001	164.699997	1183.948975	6.943125	-3.736250	-4.200000
141.214996	140.117004	1162.843018	15.141875	3.815000	-7.175000
71.431000	158.539001	1094.279053	24.456249	6.225625	-6.081250
96.868004	200.080002	1071.708984	14.135625	-3.084375	-4.532500
135.115005	219.050995	1089.520996	5.722500	-2.528750	-7.100625
103.700005	213.317001	1085.921997	-0.035000	-0.420000	-3.399375
88.206001	177.266006	1092.083008	-4.681250	-3.272500	0.835625
124.257004	175.313995	1062.864014	-5.201875	-1.911875	0.603750
76.860001	125.050003	1122.156006	1.308125	-0.883750	4.090625
93.573997	149.876999	1093.119995	3.316250	-8.098125	1.640625
130.356995	171.837006	1089.582031	3.176250	-11.200000	-6.186250
144.447998	151.158005	1107.942993	8.518125	-5.066250	-8.509375
68.442001	143.044998	1085.373047	12.018125	-9.765000	-6.645625
91.072998	99.125000	1124.046997	13.536250	-14.188125	6.934375
142.557007	145.790009	1126.243042	19.635000	-6.133750	21.174999
155.306000	182.451004	1100.500977	21.017500	-8.741250	13.378750
185.440002	224.602005	1107.698975	14.721875	-8.793750	10.696875
182.389999	240.096008	1103.368042	6.943125	1.973125	13.733125
170.617004	201.238998	1120.936035	-2.043125	12.355000	14.424375
102.297005	216.184006	1107.515991	-4.042500	18.322500	12.149375
76.189003	188.307007	1109.223999	-3.438750	18.445000	15.627500
94.367004	151.707001	1103.672974	0.608125	11.077500	16.646875
72.285004	174.033005	1067.072998	-4.690000	5.390000	15.382500
106.689003	146.339005	1097.511963	-10.465000	2.852500	11.020625
94.733002	165.859009	1081.286011	-15.220625	8.028125	5.105625
56.791000	128.893005	1113.494019	-24.206875	9.660000	0.826875
103.090004	113.459999	1148.447021	-19.945625	7.542500	-1.474375
71.980003	107.787003	1139.541016	-12.556250	12.241250	-4.663750
50.447002	94.183998	1152.900024	-6.090000	8.623125	-5.193125
109.556000	122.732002	1128.072998	-4.243750	4.134375	-2.471875
34.770000	133.712006	1133.807007	-1.194375	14.756875	-6.072500
17.080000	128.649002	1099.342041	-0.647500	17.867500	-5.158125
22.753000	107.482002	1091.473022	-4.777500	10.093125	3.276875
-17.263000	73.931999	1101.598999	-3.675000	6.256250	1.093750
-14.457000	81.069000	1103.124023	-0.367500	3.093125	0.070000
-8.845000	109.922005	1092.083008	-1.102500	0.975625	0.730625
-40.260002	92.720001	1100.623047	-2.826250	0.520625	-1.911875
-10.614000	64.476997	1108.431030	0.105000	2.253125	-5.005000
-46.786999	71.675003	1132.708984	4.843125	1.745625	-9.397500
-37.393002	95.586998	1130.452026	2.345000	-6.868750	-11.256875
7.686000	106.262001	1136.857056	-1.872500	-11.838750	-6.247500
27.511000	95.221001	1129.415039	1.518125	-5.853750	-6.352500
12.444000	110.531998	1125.572021	-0.030625	-2.716875	-6.199375
23.058001	93.818001	1132.221069	-1.750000	-4.869375	-4.816875
42.028999	95.831001	1121.973022	1.312500	-1.483125	-6.636875
3.965000	92.232002	1115.385010	-0.805000	-0.017500	-5.026875
19.032000	63.195999	1103.307007	1.596875	-2.515625	-4.860625
19.520000	107.848000	1097.817017	3.311875	-3.014375	-4.497500
21.106001	80.215004	1131.062012	0.735000	-5.271875	-2.406250
53.558002	65.758003	1128.744019	0.608125	-6.763750	-5.057500
67.344002	75.212997	1119.289062	-1.426250	-4.200000	-9.410625
61.915001	54.411999	1134.234009	-2.082500	-1.028125	-9.397500
71.613998	74.481003	1110.505005	0.630000	-0.411250	-10.644375
56.486000	96.684998	1100.623047	-1.356250	4.208750	-10.521875
18.361000	86.681000	1125.510986	-0.280000	4.698750	-12.591250
69.479004	148.718002	1115.873047	-2.432500	-8.058750	-15.006250
59.719002	147.742004	1090.740967	-11.672500	-12.166875	-11.300625
67.771004	117.852005	1111.847046	-16.117500	-7.595000	-7.463750
97.599998	126.086998	1118.191040	-12.976250	0.161875	-6.645625
78.933998	76.494003	1137.344971	-18.528126	1.688750	-3.425625
111.264000	70.577003	1169.614014	-19.324375	-1.439375	-4.956875
73.749001	43.615002	1131.733032	-12.757500	-2.970625	-3.640000
72.711998	28.792000	1109.895020	-6.846875	-4.029375	0.910000
72.711998	66.063004	1103.185059	-0.800625	-4.974375	-0.770000
109.861000	43.249001	1106.600952	9.957500	-0.848750	2.196250
132.919006	44.652000	1082.201050	19.569374	1.461250	10.421250
128.587997	26.108000	1092.875977	21.166250	4.952500	14.840000
76.189003	115.778000	1079.456055	19.871250	16.795626	8.828750
1.525000	65.391998	1105.442017	16.353750	16.791250	4.891250
57.645000	112.362000	1120.936035	7.647500	0.240625	12.582500
15.067000	87.047005	1109.651001	3.075625	-1.732500	12.985000
39.466999	61.792999	1127.341064	6.750625	2.773750	11.305000
51.484001	74.664001	1105.990967	4.939375	-2.170000	13.965000
25.071001	45.750000	1112.822998	4.309375	-1.050000	17.600624
42.761002	63.318001	1090.009033	9.743125	-1.400000	18.571875
16.653000	60.512001	1091.290039	8.308125	7.280000	13.335000
-32.085999	62.586002	1140.273071	6.142500	3.504375	9.340625
14.762000	93.695999	1126.791992	8.745625	-8.938125	9.401875
17.873001	98.392998	1118.068970	5.508125	-3.504375	5.061875
-28.548000	85.705002	1123.437012	2.817500	0.905625	0.446250
2.318000	70.028000	1130.146973	3.189375	-1.181250	0.446250
9.943000	88.754997	1136.979004	-0.096250	-0.476875	1.754375
16.165001	66.917000	1131.000977	-4.554375	1.820000	3.316250
18.300001	86.315002	1138.931030	-5.976250	3.863125	2.196250
-4.941000	101.138000	1126.364990	-6.391875	5.875625	-1.137500
-13.847000	96.624001	1104.161011	-5.980625	3.644375	-2.191875
-2.806000	113.704002	1108.187012	-5.385625	-0.708750	-2.983750
23.424000	98.209999	1104.099976	-2.673125	-3.871875	-2.065000
44.103001	132.309006	1107.454956	-0.275625	-3.902500	-4.427500
31.537001	152.438995	1112.213013	0.354375	-0.485625	-6.540625
20.069000	139.201996	1093.608032	2.253125	-0.039375	-9.590000
16.958000	187.147995	1096.718994	2.253125	-0.039375	-10.438750
42.272999	149.755005	1101.964966	0.616875	-3.745000	-10.438750
42.272999	149.755005	1118.130005	-4.322500	-5.241250	-6.536250
65.574997	134.078003	1118.130005	-4.961250	-5.958750	-6.431250
91.134003	139.628998	1122.827026	-1.863750	-6.050625	-10.010000
82.654999	144.143005	1138.625977	2.327500	-6.352500	-8.666875
82.349998	166.225006	1125.083984	1.662500	-4.956875	-9.445625
85.583000	155.001007	1121.057983	1.338750	0.266875	-9.948750
51.240002	166.285995	1121.057983	0.175000	2.345000	-10.723125
25.193001	151.279999	1120.082031	-1.146250	3.045000	-11.016250
63.989002	146.400009	1127.341064	0.542500	-1.876875	-6.146875
59.170002	164.578003	1125.083984	3.163125	-4.904375	-2.060625
78.385002	136.945007	1122.156006	4.020625	-1.946875	0.284375
70.943001	140.604996	1121.546021	2.336250	0.577500	-2.673125
53.313999	124.928001	1115.506958	0.621250	1.461250	-6.050625
71.675003	127.917000	1109.956055	2.340625	0.389375	-6.453125
61.671001	140.421997	1115.994995	3.268125	2.454375	-7.380625
47.091999	131.333008	1118.130005	2.660000	0.988750	-4.606875
70.577003	132.858002	1116.300049	3.574375	-1.793750	-4.523750
60.084999	132.248001	1109.162964	1.763125	2.349375	-6.645625
42.821999	115.900002	1111.176025	1.876875	2.830625	-4.987500
48.861000	128.222000	1107.027954	2.541875	0.468125	-8.338750
64.050003	125.172005	1116.604980	0.800625	0.634375	-8.531250
64.171997	115.107002	1119.228027	1.995000	0.262500	-6.829375
44.652000	109.678001	1100.196045	2.463125	-0.091875	-9.082500
34.098999	103.883003	1099.463989	1.417500	1.688750	-8.281875
21.410999	97.539001	1105.990967	2.703750	1.916250	-8.338750
36.112000	97.966003	1103.001953	3.246250	-1.706250	-9.380000
58.621002	100.528000	1114.713989	3.171875	-2.743125	-7.498750
52.643002	108.153000	1112.030029	2.961875	-3.150000	-8.596875
47.945999	84.362999	1120.143066	0.800625	-2.590000	-6.772500
31.720001	76.555000	1117.764038	1.863750	-2.480625	-4.672500
30.256001	77.714005	1113.128052	2.620625	-2.629375	-5.766250
39.101002	87.168999	1127.645996	0.708750	-3.031875	-2.791250
57.767002	77.287003	1124.839966	0.665000	-3.360000	-1.277500
54.046001	76.860001	1123.010010	-0.030625	-1.483125	-0.236250
42.272999	75.274002	1131.977051	-0.258125	-1.693125	0.389375
39.284000	81.556999	1129.963989	0.122500	-1.190000	-1.881250
18.544001	87.778999	1128.255981	0.096250	-0.402500	-1.054375
22.264999	100.040001	1139.723999	-1.076250	-2.576875	-0.424375
51.605999	96.868004	1135.332031	-1.408750	-4.536875	-0.901250
52.459999	94.428001	1125.876953	-1.216250	-1.833125	-2.126250
41.174999	93.085999	1129.659058	-1.251250	-1.063125	-3.390625
37.332001	97.661003	1122.338989	-1.855000	-2.445625	-4.519375
50.996002	95.526001	1124.412964	-1.076250	-2.817500	-5.118750
61.000000	105.469002	1113.921021	-0.590625	-2.765000	-7.275625
72.834000	101.138000	1116.056030	-2.410625	-1.391250	-8.793750
69.540001	92.780998	1105.380981	-1.181250	-1.067500	-8.981875
76.189003	95.465004	1099.769043	-1.443750	-4.208750	-9.843750
60.389999	71.431000	1107.821045	-4.191250	-3.613750	-10.491250
51.423000	71.003998	1116.239014	-0.673750	-3.066875	-11.873750
39.833000	80.946999	1106.234985	2.909375	-0.249375	-15.133125
42.882999	101.077003	1128.927002	2.498125	-3.150000	-15.006250
75.152000	117.242004	1123.864014	2.638125	-8.198750	-13.510000
108.763000	105.469002	1118.068970	1.706250	-6.378750	-13.597500
94.916000	122.487999	1120.509033	0.446250	-4.878125	-15.811250
95.160004	126.819000	1097.695068	0.253750	-2.183125	-15.120000
73.993004	115.350998	1098.732056	1.911875	-0.363125	-14.214375
71.980003	125.598999	1070.854980	1.225000	-0.371875	-16.677500
61.549000	119.376999	1067.011963	-0.350000	-0.927500	-12.385625
62.098000	130.417999	1086.348999	0.385000	-4.620000	-13.098750
72.163002	121.695000	1113.738037	-1.767500	-8.526875	-12.766250
84.424004	139.080002	1124.352051	-0.616875	-11.865000	-12.985000
108.397003	146.216995	1138.504028	0.551250	-8.207500	-14.573125
105.408005	160.186005	1150.826050	-0.118125	-4.519375	-12.980625
78.018997	158.356003	1132.770020	-2.502500	-2.664375	-15.093750
91.500000	142.617996	1119.776978	-3.666250	-1.579375	-11.873750
81.313004	132.309006	1105.197998	-1.815625	0.809375	-9.695000
69.723000	120.719002	1112.091064	-2.353750	-0.936250	-6.505625
86.863998	105.652000	1105.380981	0.450625	-2.878750	-4.095000
68.564003	141.581009	1127.951050	2.839375	-4.007500	-6.553750
95.770004	146.949005	1125.083984	-0.656250	-6.444375	-2.384375
103.151001	130.540009	1117.825073	0.481250	-2.436875	-0.039375
98.332001	145.057999	1118.008057	1.666875	0.385000	-1.312500
109.922005	139.568008	1118.251953	-0.708750	-1.159375	3.504375
93.208000	121.512001	1115.446045	0.818125	0.236250	3.657500
61.366001	129.137009	1109.651001	3.176250	2.471875	2.205000
60.024002	140.787994	1111.053955	4.620000	-1.343125	3.189375
58.804001	136.639999	1092.631958	3.626875	-1.295000	1.824375
53.131001	120.902000	1107.638062	4.598125	-2.108750	0.446250
50.996002	141.093002	1111.847046	6.330625	-3.395000	0.735000
84.240997	147.681000	1142.774048	5.945625	-5.853750	9.030000
102.785004	153.658997	1144.238037	6.435625	-6.055000	14.420000
101.870003	148.352005	1140.578003	8.159375	1.588125	16.620625
82.472000	157.440994	1123.742065	7.306250	4.375000	16.450001
69.540001	144.996994	1117.214966	5.565000	3.915625	15.942500
84.667999	134.016998	1105.869019	8.295000	0.205625	13.995625
86.986000	158.660995	1091.167969	9.655625	0.590625	11.200000
87.596001	159.453995	1097.207031	8.150625	0.686875	13.851250
110.836998	160.796005	1098.244019	7.306250	-0.525000	14.166250
113.887001	156.404007	1120.630981	5.035625	-1.806875	15.216250
123.647003	149.389008	1127.584961	3.801875	0.122500	16.432501
92.598000	145.302002	1133.197021	4.790625	7.056875	13.361250
71.980003	151.341003	1115.079956	2.559375	7.070000	11.707500
73.078003	143.899002	1104.161011	-0.901250	6.383125	8.478750
79.361000	138.287003	1106.296021	-1.015000	6.711250	6.715625
74.786003	121.267998	1114.531006	-1.006250	5.127500	4.939375
83.387001	118.950005	1112.518066	0.126875	5.464375	0.560000
81.374001	113.459999	1126.060059	0.126875	6.160000	-0.752500
79.666000	110.531998	1102.575073	-0.004375	6.160000	-0.752500
79.666000	110.531998	1119.105957	0.612500	6.825000	-3.850000
65.758003	132.431000	1119.105957	-2.655625	6.527500	-5.123125
63.928001	113.338005	1113.432983	-5.635000	4.265625	-2.108750
71.187004	93.818001	1102.941040	-4.270000	4.501875	-3.727500
36.600002	113.642998	1104.343994	-4.195625	6.588750	-4.908750
44.225002	102.175003	1103.978027	-3.128125	3.106250	-5.158125
42.821999	110.959000	1106.661987	-3.027500	1.071875	-6.737500
45.139999	111.630005	1118.008057	-4.536875	-2.244375	-6.440000
67.161003	106.506004	1106.723022	-4.410000	-3.714375	-6.807500
53.680000	105.042000	1124.291016	-3.889375	-0.774375	-6.461875
69.052002	109.007004	1119.838013	-4.033750	-1.824375	-6.059375
72.528999	113.764999	1114.042969	-3.871875	-2.686250	-6.518750
72.834000	119.499001	1114.958008	-5.035625	-2.104375	-4.449375
74.298004	109.250999	1112.761963	-4.418750	-2.161250	-3.075625
57.218002	112.301003	1112.151978	-3.189375	-1.579375	-4.379375
70.028000	114.680000	1119.655029	-2.502500	-4.410000	-3.556875
80.093002	134.992996	1117.885986	-1.920625	-5.236875	-3.097500
68.502998	132.736008	1125.266968	-1.841875	-1.754375	-3.605000
93.147003	112.301003	1128.317017	-2.454375	-3.990000	-0.183750
110.776001	116.693001	1121.119019	-0.026250	-4.256875	-1.561875
91.500000	124.378998	1122.156006	0.577500	-1.662500	-4.799375
96.075005	121.024002	1123.498047	-0.345625	-3.368750	-2.485000
97.356003	123.585999	1112.334961	-0.332500	-0.100625	-4.112500
94.793999	123.342003	1115.019043	-1.343125	0.411250	-3.303125
112.118004	111.325005	1115.690063	-0.240625	-0.752500	-0.988750
88.389000	117.058998	1095.682007	1.023750	2.244375	-3.259375
83.936005	111.874001	1115.263062	2.270625	0.853125	-1.308125
103.883003	115.960999	1127.890015	2.835000	0.590625	-4.418750
86.132004	114.070000	1111.053955	-1.470000	5.145000	-7.743750
75.579002	125.293999	1122.277954	-1.736875	3.360000	-5.569375
95.953003	115.107002	1114.286987	0.774375	-0.293125	-3.902500
88.389000	117.791000	1110.687988	1.706250	0.415625	-3.106250
75.152000	125.598999	1112.395996	1.277500	-0.621250	-0.695625
80.946999	109.068001	1108.858032	0.380625	-1.413125	0.459375
96.258003	102.785004	1110.810059	0.126875	-0.896875	-0.704375
68.014999	113.277000	1108.369995	1.465625	0.958125	-1.238125
82.228004	102.541000	1105.076050	3.136875	-0.599375	-2.441250
79.422005	153.292999	1135.697998	3.316250	-5.350625	-3.552500
106.627998	127.185005	1114.165039	-1.841875	-7.437500	2.878750
75.152000	85.827003	1104.770996	-1.868125	1.439375	2.826250
37.514999	90.829002	1109.162964	-0.936250	3.801875	-1.220625
54.900002	91.134003	1112.822998	-0.936250	-3.180625	1.015000
54.900002	101.320999	1121.119019	0.345625	-5.639375	1.001875
63.257000	98.697998	1133.380005	-0.183750	-5.796875	0.608125
68.381004	97.356003	1108.796997	-0.616875	-4.847500	1.281875
53.436001	86.193001	1122.765991	0.472500	-1.238125	-1.859375
48.922001	93.878998	1115.994995	0.503125	-1.242500	-2.073750
25.802999	93.573997	1128.622070	1.168125	-0.437500	-2.681875
29.951000	96.441002	1135.270996	-0.437500	-2.594375	-0.083125
66.306999	80.276001	1139.419067	-1.133125	-4.051250	2.690625
42.639000	86.070999	1129.171021	2.235625	2.082500	-1.723750
52.887001	95.831001	1123.437012	1.767500	2.594375	-3.565625
50.507999	80.276001	1113.799072	-0.476875	1.085000	-3.136875
52.948002	75.639999	1113.738037	0.000000	0.673750	-3.154375
67.222000	68.747002	1108.308960	-0.227500	1.439375	-0.988750
47.214001	56.791000	1103.734009	0.223125	1.618750	0.061250
39.345001	57.950001	1105.930054	1.872500	1.264375	-0.078750
45.323002	62.769001	1108.065063	2.533125	-0.927500	1.500625
32.025002	70.455002	1112.945068	-0.376250	-2.458750	1.308125
65.758003	62.403000	1119.899048	-2.296875	-4.917500	1.316875
69.967003	60.878002	1107.942993	-0.678125	-1.251250	0.590625
46.909000	68.502998	1119.959961	1.675625	2.069375	-1.080625
51.667000	82.472000	1120.936035	1.570625	-0.236250	1.071875
53.192001	83.204002	1114.165039	0.656250	-0.612500	1.662500
65.758003	71.431000	1119.411011	0.183750	-0.931875	3.605000
60.389999	79.483002	1123.315063	1.312500	-1.916250	3.325000
55.144001	88.999001	1119.838013	2.476250	0.175000	0.275625
53.070000	102.358002	1110.749023	1.754375	-0.476875	1.041250
60.817001	108.763000	1115.263062	-1.671250	-1.198750	1.115625
80.703003	97.294998	1124.779053	-1.111250	2.362500	1.680000
63.440002	122.061005	1127.218994	-1.421875	7.100625	0.861875
28.059999	108.702003	1143.505981	-2.765000	7.774375	-2.126250
20.434999	121.146004	1117.458984	-2.568125	1.242500	-1.045625
28.121000	116.083000	1098.854004	-0.743750	0.367500	-1.391250
15.128000	117.486000	1108.979980	1.365000	1.001875	-1.859375
32.085999	128.343994	1112.213013	2.375625	-1.776250	-0.949375
54.107002	135.115005	1121.119019	2.476250	-2.008125	0.214375
56.119999	131.393997	1128.682983	3.268125	-0.787500	1.426250
46.909000	141.764008	1118.922974	0.787500	0.774375	3.023125
41.602001	121.389999	1110.626953	0.026250	0.560000	7.030625
45.445000	117.852005	1115.629028	0.822500	0.713125	4.200000
48.007000	127.185005	1120.509033	-0.577500	-3.841250	3.587500
80.031998	122.000000	1135.088013	1.680000	-5.258750	4.366250
101.687004	125.843002	1124.046997	1.955625	-1.461250	4.738125
84.790001	106.384003	1119.959961	2.445625	6.116250	6.107500
60.329002	114.497002	1123.437012	6.278125	13.947500	1.023750
22.753000	145.546005	1117.093018	2.528750	7.700000	0.210000
46.299000	146.033997	1118.739990	-1.408750	-3.915625	5.000625
101.198997	106.932999	1111.968994	-1.102500	-5.543125	4.366250
71.125999	101.748001	1106.234985	-0.288750	0.581875	2.730000
61.671001	99.307999	1110.260986	-0.358750	-0.140000	0.787500
95.465004	105.224998	1113.555054	0.529375	-3.631250	-0.144375
66.734001	90.889999	1114.836060	-0.516250	-1.242500	0.875000
84.729004	76.006004	1109.406982	-1.351875	-2.331875	0.831250
81.984001	67.161003	1099.525024	-1.400000	-1.063125	0.433125
62.464001	61.976002	1106.234985	-0.043750	-1.203125	0.988750
87.047005	70.698997	1114.896973	1.583750	-3.320625	0.048125
79.848999	66.124001	1112.395996	0.927500	-3.062500	-0.231875
83.021004	67.587997	1133.562988	1.561875	-3.644375	0.249375
96.989998	82.837997	1125.999023	1.273125	-1.618750	-1.286250
63.684002	77.409004	1121.302002	-1.561875	0.161875	-2.279375
60.512001	73.444000	1128.072998	-3.430000	-0.599375	-1.295000
61.000000	57.584000	1131.367065	-3.145625	-2.423750	-1.330000
80.093002	65.331001	1144.604004	-3.976875	-5.350625	-2.314375
101.077003	37.637001	1145.092041	-4.620000	-5.455625	-2.253125
111.386002	44.957001	1124.839966	-3.823750	-0.888125	-4.270000
93.695999	46.604000	1113.921021	-4.633125	3.889375	-6.304375
79.178001	44.896000	1086.958984	-4.869375	4.335625	-6.050625
77.958000	54.473000	1105.015015	-4.305000	2.485000	-6.960625
83.509003	60.938999	1113.188965	-3.530625	-4.423125	-4.930625
97.356003	71.125999	1108.004028	-0.813750	-6.002500	-5.070625
71.918999	77.165001	1116.848999	0.026250	-1.203125	-7.555625
65.696999	81.923004	1121.607056	0.061250	-1.701875	-5.748750
94.916000	66.001999	1105.076050	2.091250	-2.187500	-4.348750
100.833000	61.000000	1093.058960	2.953125	0.061250	-4.659375
93.025002	58.194000	1095.376953	2.231250	-0.021875	-4.703125
76.982002	61.792999	1091.411987	2.104375	0.459375	-5.560625
59.902000	66.429001	1111.237061	-0.498750	0.148750	-6.068125
50.325001	53.253002	1122.644043	-2.196250	-1.680000	-5.232500
84.180000	53.070000	1145.885010	1.168125	-5.993750	-4.116875
121.939003	79.666000	1151.740967	1.168125	-10.005625	-2.883125
95.221001	67.527000	1153.875977	0.192500	-10.005625	-2.883125
95.221001	67.527000	1127.097046	-2.843750	-5.805625	-1.295000
84.607002	51.605999	1127.097046	-1.728125	-0.175000	-3.876250
64.171997	67.832001	1124.962036	-0.590625	2.541875	-4.300625
71.308998	71.675003	1129.415039	1.246875	0.621250	-5.560625
98.209999	87.230003	1124.352051	2.922500	-1.789375	-3.298750
69.174004	88.450005	1104.832031	1.426250	2.493750	-2.388750
52.948002	63.500999	1108.675049	1.006250	3.101875	-2.537500
52.094002	80.031998	1136.552002	1.986250	-2.743125	-1.999375
72.651001	81.129997	1128.805054	1.881250	-4.025000	-2.476250
76.432999	52.764999	1122.948975	4.593750	3.185000	-4.182500
32.635002	78.933998	1128.317017	4.296250	8.868125	-6.339375
44.896000	62.586002	1118.191040	1.168125	4.602500	-4.567500
43.310001	50.813000	1110.626953	1.496250	4.576250	-3.784375
42.700001	68.685997	1108.614014	2.546250	3.399375	-2.957500
42.700001	65.026001	1095.499023	4.383750	3.583125	-1.645000
57.827999	69.235001	1102.818970	4.519375	2.191875	-0.105000
52.948002	86.620003	1109.529053	3.915625	1.911875	-0.271250
26.779001	79.971001	1111.541992	3.053750	0.402500	-1.190000
48.739002	59.902000	1122.521973	2.030000	-0.660625	0.949375
8.967000	77.348000	1123.864014	2.165625	-1.684375	2.511250
43.005001	72.711998	1134.478027	0.441875	-4.698750	3.185000
54.290001	58.804001	1117.764038	-0.284375	-2.038750	1.483125
3.294000	88.816002	1130.086060	-1.767500	0.914375	0.420000
34.403999	60.451000	1129.598022	-2.270625	-1.001875	3.377500
22.631001	79.117004	1116.056030	0.651875	1.548750	2.170000
10.553000	91.377998	1109.406982	0.774375	2.240000	0.013125
31.049000	68.502998	1081.834961	0.319375	0.148750	1.706250
43.554001	56.059002	1078.358032	2.555000	-2.034375	4.834375
55.510002	42.334000	1095.437988	3.040625	-3.543750	5.481875
37.332001	43.188000	1118.312988	2.104375	-5.285000	2.603125
48.678001	69.417999	1134.966064	2.541875	-10.583125	2.480625
53.741001	85.155998	1138.077026	3.220000	-9.856875	0.577500
54.534000	100.405998	1137.894043	-1.330000	-1.885625	1.194375
37.088001	81.374001	1143.445068	-1.190000	0.157500	2.423750
55.570999	84.057999	1143.750000	-0.008750	-0.087500	1.063125
68.685997	63.806000	1117.581055	0.573125	1.618750	4.615625
55.205002	58.011002	1126.364990	3.084375	3.062500	6.855625
71.248001	70.760002	1112.274048	2.730000	0.923125	6.286875
59.353001	81.618004	1112.884033	-0.634375	2.025625	4.213125
63.257000	70.698997	1117.093018	-3.198125	0.997500	1.316875
59.292000	90.219002	1106.723022	-3.731875	1.128750	-0.761250
47.396999	75.274002	1109.651001	-5.735625	0.332500	-0.844375
65.819000	54.656002	1102.575073	-3.198125	-3.395000	-1.631875
45.323002	45.323002	1119.105957	0.122500	-4.055625	-1.995000
63.379002	66.429001	1127.951050	1.023750	-3.110625	-2.861250
54.107002	97.966003	1117.825073	-0.761250	0.201250	-5.280625
46.542999	110.898003	1110.139038	-7.888125	0.367500	-2.716875
74.054001	90.402000	1104.649048	-9.135000	-2.393125	-1.570625
91.377998	82.167000	1114.958008	-7.249375	-2.751875	-4.029375
98.759003	88.023003	1108.919067	-6.628125	-3.780000	-4.606875
91.195000	78.750999	1122.521973	-3.220000	-3.281250	-8.443750
74.907997	71.065002	1111.237061	-1.890000	-2.673125	-9.406250
69.357002	93.025002	1106.661987	-2.690625	-1.032500	-9.310000
53.192001	83.142998	1123.131958	-3.110625	0.175000	-7.896875
80.153999	77.042999	1120.203979	-1.610000	-4.707500	-4.239375
87.656998	78.323997	1130.208008	0.411250	-4.134375	-2.541875
89.426003	66.673004	1143.140015	2.576875	-2.030000	-1.426250
76.799004	75.091003	1138.138062	2.458750	-1.771875	-0.118125
46.360001	55.875999	1146.860962	-1.601250	0.713125	-0.678125
58.072002	41.358002	1156.743042	-1.526875	-0.866250	3.088750
72.468002	39.650002	1135.759033	1.211875	0.927500	8.102500
85.643997	30.805000	1111.237061	2.550625	4.025000	5.070625
83.326004	60.024002	1129.659058	0.345625	1.811250	4.353125
96.746002	57.340000	1104.039062	0.564375	1.741250	6.146875
70.210999	74.419998	1115.202026	2.222500	4.169375	4.825625
46.542999	57.584000	1126.060059	-0.848750	2.139375	5.101250
72.163002	50.813000	1129.781006	0.380625	0.144375	4.593750
59.597000	43.737000	1108.431030	2.756250	5.731250	-1.557500
70.393997	67.404999	1113.067017	1.163750	2.108750	-3.898125
104.981003	60.695000	1107.577026	-1.260000	-2.498125	-2.253125
89.548004	47.640999	1094.218018	1.185625	2.651250	-2.975000
95.953003	68.747002	1105.807983	0.581875	0.266875	-3.714375
107.848000	51.362000	1095.255005	-0.245000	0.380625	-3.097500
87.840004	37.088001	1102.697021	2.695000	1.098125	-5.748750
96.806999	37.209999	1105.747070	2.625000	-0.201250	-6.623750
77.225998	41.053001	1113.555054	2.305625	-0.301875	-6.098750
95.831001	22.936001	1109.468018	2.581250	-2.244375	-6.304375
65.391998	23.546000	1111.053955	1.098125	-0.140000	-4.676875
62.341999	-0.915000	1109.468018	2.957500	-0.608125	-3.972500
69.235001	-4.148000	1127.828979	4.598125	-2.528750	-4.326875
85.522003	15.189000	1134.782959	2.436875	-3.106250	-5.285000
80.336998	-11.651000	1126.974976	1.172500	-0.879375	-3.040625
86.925003	-9.272000	1148.081055	1.933750	-2.830625	-2.345000
119.804001	6.954000	1120.753052	0.310625	-3.836875	-1.977500
78.628998	0.427000	1125.510986	-0.052500	2.546250	-2.095625
65.148003	13.054000	1130.756958	-0.783125	1.413125	-2.935625
60.878002	10.248000	1117.154053	-2.117500	0.126875	-0.350000
49.227001	17.019001	1124.291016	-1.028125	2.205000	0.555625
53.497002	26.535000	1132.464966	-1.325625	2.502500	4.309375
39.406002	24.521999	1127.280029	1.089375	1.601250	8.330000
66.368004	41.968002	1131.367065	2.988125	-2.191875	10.631250
51.850002	50.569000	1113.250000	0.717500	0.931875	9.668750
21.594000	53.375000	1110.443970	-0.551250	3.828125	5.713750
24.948999	61.305000	1107.638062	-1.111250	1.102500	7.507500
28.731001	60.756001	1113.067017	-2.568125	-0.883750	11.497500
49.959000	59.170002	1118.557007	-1.627500	-1.824375	12.324375
40.199001	64.233002	1120.447998	-1.041250	-0.078750	14.826875
35.257999	66.612000	1114.409058	0.323750	-0.017500	17.902500
37.698002	69.600998	1112.518066	2.380000	-0.945000	20.133751
43.615002	80.153999	1112.640015	2.331875	-0.861875	24.360001
45.018002	71.675003	1101.477051	1.671250	-1.019375	28.503124
32.390999	58.194000	1112.395996	2.117500	-2.432500	30.533125
50.935001	62.281002	1102.941040	1.837500	-6.527500	33.836250
64.660004	67.404999	1118.984009	1.837500	-6.527500	36.806873
64.660004	53.070000	1123.925049	1.063125	-6.540625	36.806873
60.633999	53.070000	1123.925049	2.362500	-3.981250	35.630001
65.453003	44.225002	1138.015991	1.128750	-3.263750	37.240002
63.928001	39.771999	1133.624023	0.634375	-2.091250	35.774376
72.651001	40.015999	1121.729004	0.354375	-1.811250	31.876249
59.779999	37.453999	1110.505005	-0.809375	-3.788750	32.711876
55.998001	34.892002	1113.067017	-0.494375	-8.098125	34.168751
118.218002	27.877001	1112.518066	1.220625	-13.632500	32.948124
122.670998	48.129002	1114.469971	3.998750	-7.525000	29.023750
101.992004	29.524000	1130.452026	4.637500	-0.288750	22.728125
92.292999	38.003002	1131.427979	3.066875	-0.376250	18.755625
80.946999	10.553000	1118.130005	1.715000	0.144375	15.155000
66.001999	15.921000	1130.940063	0.297500	-0.030625	11.348750
66.489998	-13.054000	1121.607056	-3.731875	-1.898750	9.410625
75.457001	-45.018002	1122.034058	-3.123750	-2.524375	9.760625
70.515999	-39.589001	1110.016968	0.179375	-1.211875	6.273750
77.653000	-26.596001	1111.053955	0.196875	-0.428750	2.121875
78.445999	-14.152000	1121.790039	-2.651250	-1.793750	0.866250
99.247002	-23.363001	1104.222046	-1.885625	-0.586250	-1.006250
83.692001	-20.313000	1119.472046	-1.728125	1.378125	-3.154375
79.056000	11.346000	1107.577026	-1.500625	-0.350000	-5.985000
79.178001	11.102000	1110.016968	0.853125	-1.693125	-7.616875
87.535004	7.564000	1108.248047	-0.218750	0.542500	-8.623125
78.628998	-13.847000	1100.013062	-1.561875	2.905000	-7.529375
78.933998	-10.797000	1121.119019	1.343125	-0.301875	-6.755000
105.286003	3.416000	1127.951050	1.093750	-2.397500	-9.721250
106.017998	-7.259000	1124.839966	-0.713125	-1.999375	-13.186250
86.863998	-5.978000	1120.570068	-0.735000	1.872500	-14.555625
83.082001	5.124000	1139.662964	2.498125	3.539375	-18.969999
73.504997	23.973000	1134.722046	1.356250	1.771875	-21.774376
73.200005	7.198000	1126.609009	-0.179375	0.555625	-19.879999
92.170998	3.416000	1122.644043	-0.170625	2.375625	-22.903126
83.997002	10.309000	1115.506958	-3.941875	3.692500	-24.224375
109.373001	4.575000	1125.937988	-7.301875	2.520000	-20.794374
91.134003	8.357000	1125.328003	-7.345625	4.908750	-17.959375
60.633999	8.418000	1130.025024	-6.483750	5.985000	-12.652500
76.737999	18.361000	1123.071045	-0.043750	2.113125	-12.306875
77.714005	44.896000	1109.773071	4.519375	1.806875	-15.198750
65.696999	57.218002	1113.311035	3.714375	1.968750	-15.260000
70.210999	49.837002	1109.102051	5.385625	-0.175000	-16.034374
77.287003	42.761002	1106.296021	5.066250	-3.316250	-13.208125
79.361000	42.456001	1120.692017	3.517500	-1.658125	-11.458125
77.835999	19.947001	1124.656982	2.957500	-2.664375	-8.356250
95.831001	4.026000	1130.635010	3.062500	-5.683125	-6.120625
100.955002	24.217001	1129.109985	3.911250	-2.065000	-7.726250
59.963001	24.521999	1131.367065	3.605000	2.813125	-8.330000
35.075001	39.650002	1147.898071	3.605000	2.003750	-7.940625
75.579002	55.875999	1146.190063	4.799375	-1.019375	-4.908750
78.080002	55.632000	1112.274048	4.834375	3.329375	-0.560000
70.577003	38.552002	1109.956055	3.640000	5.499375	2.835000
55.265999	62.890999	1109.833984	3.981250	4.287500	6.238750
44.103001	69.112999	1097.145996	3.535000	1.325625	6.776875
73.200005	50.874001	1105.503052	2.410625	-4.637500	7.730625
77.287003	48.434002	1105.197998	-0.538125	-6.466250	7.227500
91.744003	41.907001	1118.739990	-1.137500	-4.873750	8.233750
76.860001	62.037003	1113.188965	0.586250	-2.003750	7.446250
63.684002	59.779999	1111.420044	0.774375	1.631875	10.451875
82.411003	73.809998	1130.635010	1.321250	-0.332500	14.717500
71.553001	59.658001	1116.544067	1.159375	-0.380625	17.215626
66.856003	54.167999	1139.175049	-1.338750	-0.682500	20.164375
79.910004	78.995003	1149.057007	-0.341250	4.016250	17.871876
57.645000	45.018002	1117.885986	-3.412500	6.199375	20.693750
80.946999	35.075001	1105.015015	-5.853750	2.655625	25.790625
91.622002	18.177999	1104.099976	-1.820000	4.493125	28.962500
66.063004	18.910000	1106.784058	3.049375	3.990000	33.604374
71.553001	39.466999	1130.146973	8.750000	-6.864375	38.561249
82.228004	50.507999	1113.128052	9.703750	-13.300000	43.456875
65.879997	25.193001	1103.428955	7.371875	-0.450625	42.266876
43.249001	17.263000	1132.648071	6.943125	4.375000	36.281876
95.586998	9.333000	1113.859985	4.147500	-3.408125	22.806875
67.649002	33.733002	1091.350952	3.657500	3.053750	14.463750
16.592001	49.897999	1118.739990	3.797500	8.754375	11.431875
48.068001	27.389000	1118.374023	3.788750	2.436875	12.201875
59.292000	52.033001	1139.296997	3.145625	-0.564375	9.441250
62.037003	50.264000	1128.927002	-0.656250	-2.441250	9.528750
55.937000	32.818001	1132.343018	-2.056250	-0.516250	9.909375
59.230999	16.469999	1130.817993	-1.124375	5.932500	6.409375
25.742001	22.509001	1111.176025	1.308125	6.190625	1.990625
24.888000	27.511000	1107.271973	2.458750	5.018125	-4.445000
32.757000	40.992001	1114.896973	4.182500	0.743750	-8.395625
58.438000	56.242001	1120.630981	-0.358750	-5.403125	-11.773125
40.015999	22.570000	1102.026001	-5.731250	2.463125	-15.605625
-0.793000	38.186001	1130.940063	-1.903125	5.123125	-18.576250
11.590000	29.463001	1137.344971	-0.354375	-1.216250	-16.226875
26.230000	16.653000	1127.097046	0.345625	-2.502500	-14.271250
18.117001	22.997000	1122.644043	1.316875	0.148750	-15.911875
18.910000	10.187000	1115.385010	-0.516250	-2.922500	-17.062500
57.278999	41.480000	1124.656982	1.225000	-6.868750	-17.639999
62.646999	52.338001	1122.521973	-0.800625	-1.579375	-19.184376
39.589001	38.674000	1118.251953	-1.916250	1.631875	-19.118750
51.850002	43.615002	1117.154053	0.035000	0.061250	-21.087500
33.184002	38.247002	1120.630981	-0.100625	-0.039375	-23.524376
33.428001	43.615002	1122.156006	0.918750	-1.820000	-25.663750
38.247002	56.486000	1127.341064	0.691250	0.074375	-27.728750
33.062000	45.688999	1131.000977	-0.192500	0.831250	-28.402500
29.036001	34.342999	1129.109985	-0.446250	0.275625	-29.903126
47.214001	25.681000	1126.060059	-0.196875	0.844375	-31.364374
33.855000	37.942001	1107.760010	0.380625	4.659375	-35.472500
36.355999	35.014000	1117.337036	-2.397500	5.499375	-34.221249
28.609001	33.184002	1103.245972	-2.677500	1.627500	-32.484375
21.167000	26.169001	1099.463989	-0.896875	3.906875	-36.421875
35.014000	30.439001	1100.806030	-2.673125	2.218125	-35.980000
16.104000	16.714001	1108.308960	-1.960000	-1.146250	-34.558125
25.193001	24.339001	1110.993042	0.420000	1.636250	-34.273750
32.635002	48.983002	1117.337036	2.310000	0.503125	-33.245625
18.544001	53.131001	1112.274048	2.690625	-0.485625	-35.630001
51.484001	70.272003	1133.197021	1.369375	-1.246875	-34.759377
17.080000	68.076004	1125.510986	1.369375	1.045625	-36.518124
7.747000	64.171997	1150.643066	1.006250	1.045625	-36.518124
7.747000	64.171997	1145.579956	3.583125	-4.821250	-33.079376
23.790001	86.070999	1145.579956	3.771250	-12.180000	-26.223749
54.534000	60.938999	1133.685059	1.238125	-7.538125	-22.098125
11.895000	71.125999	1142.713013	3.097500	-1.859375	-18.860624
19.703001	103.700005	1125.450073	4.138750	-2.205000	-19.035625
65.879997	71.613998	1121.911987	7.056875	-1.483125	-14.586250
100.223000	76.189003	1092.265991	10.233125	3.670625	-10.981250
48.129002	82.167000	1114.165039	5.613125	12.875625	-8.710625
18.422001	48.068001	1108.675049	-1.334375	9.415000	-6.982500
-2.745000	74.542000	1111.968994	-5.398750	3.819375	-6.619375
-12.627000	93.635002	1126.670044	-4.781875	2.555000	-9.625000
20.740000	103.700005	1120.753052	-1.255625	-0.446250	-6.063750
56.181000	81.679001	1113.311035	-0.883750	-1.115625	1.054375
70.515999	38.491001	1122.461060	3.005625	-1.741250	6.606250
52.338001	51.240002	1101.233032	4.878125	2.174375	5.853750
26.901001	71.553001	1111.724976	-0.144375	1.925000	5.394375
-15.677000	27.877001	1112.151978	-3.933125	-2.008125	7.406875
20.191000	23.180000	1122.094971	-3.600625	-5.215000	6.724375
28.365000	23.668001	1134.478027	-6.370000	-5.140625	3.749375
36.904999	18.361000	1137.588989	-3.386250	-5.359375	-1.780625
68.197998	33.184002	1141.370972	-1.610000	-6.002500	-5.044375
34.282001	15.250000	1125.450073	-2.393125	-2.253125	-6.046250
16.958000	-6.649000	1122.765991	2.331875	1.623125	-11.685625
33.428001	21.960001	1122.400024	3.718750	0.192500	-10.933125
2.562000	29.341000	1124.839966	3.762500	-0.765625	-16.926874
36.904999	37.149002	1135.088013	1.242500	-2.673125	-19.442499
70.150002	10.919000	1128.682983	0.818125	-1.658125	-20.103125
32.757000	12.322001	1107.881958	1.846250	4.755625	-27.422501
25.681000	-2.928000	1138.260010	-0.065625	2.458750	-30.183125
35.563000	18.117001	1117.458984	0.568750	-6.015625	-31.841249
46.237999	15.616000	1119.899048	1.404375	-2.813125	-35.879375
27.205999	25.315001	1113.432983	0.625625	-1.137500	-32.860626
-5.246000	33.367001	1095.193970	3.272500	1.347500	-33.564999
9.516000	71.065002	1123.254028	3.924375	0.533750	-29.220625
17.019001	75.579002	1104.709961	0.708750	-4.676875	-19.709375
37.514999	44.408001	1135.697998	6.461875	-3.898125	-21.021875
45.079002	77.104004	1126.730957	10.224375	-1.194375	-24.268126
-5.612000	82.777000	1096.047974	9.620625	2.393125	-24.254999
0.671000	65.148003	1131.123047	9.401875	-2.651250	-25.436251
43.920002	106.445000	1127.890015	7.393750	-12.429375	-28.433125
75.639999	120.048004	1120.997070	4.790625	-7.918750	-30.922501
70.455002	134.809998	1155.889038	2.244375	-6.750625	-29.382500
78.507004	140.604996	1152.411987	-5.315625	-9.559375	-21.039375
102.175003	86.803001	1159.549072	-4.116875	-5.376875	-17.460625
60.938999	112.056999	1123.071045	-5.210625	-1.102500	-18.825624
58.926003	97.966003	1119.228027	-9.069375	-0.350000	-11.125625
80.459000	79.056000	1108.065063	0.026250	1.150625	-12.950000
39.711002	142.984009	1086.958984	1.067500	1.216250	-14.231875
51.240002	121.451004	1083.604004	-1.701875	0.301875	-11.396875
34.160000	82.654999	1087.325073	3.023125	-0.179375	-5.604375
30.988001	104.737000	1108.796997	3.902500	-2.213750	-0.923125
18.056000	75.639999	1133.562988	3.565625	0.280000	2.016875
40.320999	94.733002	1150.703979	3.053750	-2.874375	-2.205000
85.400002	60.633999	1126.364990	0.008750	-4.585000	-0.056875
89.487000	72.711998	1127.036011	-0.262500	1.605625	5.398750
65.453003	72.590004	1134.416992	-1.701875	-4.598125	9.415000
-15.860001	124.867004	1140.029053	-5.840625	-9.905000	3.320625
-2.928000	48.799999	1180.899048	-12.512500	-8.172500	6.020000
55.875999	11.773000	1142.713013	-7.581875	-8.575000	7.223125
126.941002	27.450001	1082.628052	-1.946875	-6.138125	-2.778125
101.320999	39.650002	1088.545044	-3.797500	1.417500	-1.308125
75.334999	37.453999	1054.323975	3.416875	9.651250	-9.450000
72.101997	57.767002	1066.036011	-1.001875	10.661875	-6.978125
27.205999	33.367001	1106.844971	-2.366875	2.358125	-1.955625
18.605000	14.152000	1108.919067	2.060625	-1.640625	-2.030000
-58.316002	-3.416000	1105.320068	2.520000	0.476875	-5.748750
-29.280001	-16.958000	1132.160034	5.963125	-4.523750	-11.908750
-13.054000	14.884000	1121.363037	7.660625	-4.908750	-14.455000
-0.488000	28.792000	1100.927979	5.324375	0.096250	-18.090626
-5.368000	30.927000	1130.329956	3.040625	-0.100625	-15.863750
14.335000	25.681000	1115.690063	-0.227500	0.735000	-19.035625
4.575000	15.555000	1117.641968	-5.420625	1.557500	-20.580000
29.585001	31.720001	1139.052979	-7.494375	-8.277500	-26.149376
113.399002	68.014999	1128.805054	-8.386875	-17.307501	-33.188751
122.061005	83.326004	1113.738037	-12.696250	-8.465625	-35.043751
63.135002	55.570999	1120.143066	-11.611250	6.002500	-39.458126
33.793999	80.093002	1127.097046	-5.630625	5.250000	-35.603748
92.475998	53.985001	1122.521973	-4.414375	-5.963125	-29.211876
123.585999	70.028000	1105.686035	-4.935000	-7.214375	-29.421875
135.175995	72.895004	1115.019043	-6.041875	-8.211875	-21.078751
141.581009	48.617001	1100.562012	-1.470000	-0.402500	-18.690001
75.762001	52.154999	1106.723022	1.640625	4.423125	-20.986876
66.794998	59.963001	1124.656982	2.590000	1.211875	-21.253750
56.547001	68.137001	1123.131958	3.228750	-0.910000	-20.986876
78.750999	51.118000	1134.355957	0.752500	-3.403750	-14.966875
67.771004	38.612999	1128.317017	0.516250	-3.723125	-13.829375
90.951004	46.055000	1124.108032	0.704375	-7.301875	-13.969375
117.242004	42.700001	1109.468018	0.700000	-5.118750	-12.818750
78.263000	50.569000	1111.724976	1.225000	-3.438750	-12.801250
84.240997	49.532001	1112.395996	2.038750	-7.770000	-9.848125
100.772003	27.999001	1116.483032	4.178125	-5.306875	-8.080625
99.186005	50.081001	1124.169067	4.659375	-4.221875	-10.023125
135.725006	64.050003	1138.381958	2.524375	-4.305000	-8.098125
117.363998	56.181000	1133.380005	3.325000	-0.529375	-7.249375
120.474998	45.932999	1132.037964	2.528750	-0.280000	-5.989375
119.804001	62.708000	1133.380005	1.155000	-0.533750	-5.083750
105.164001	58.681999	1122.704956	2.226875	0.660625	-3.500000
107.237999	61.671001	1128.072998	2.371250	3.548125	-2.248750
99.125000	62.952000	1117.703003	1.413125	2.415000	-0.240625
103.761002	64.903999	1116.666016	1.426250	1.465625	0.800625
100.040001	73.504997	1133.014038	-1.308125	0.542500	3.653125
91.195000	65.331001	1126.853027	-0.835625	0.437500	11.690000
94.367004	56.424999	1136.247070	0.498750	4.567500	14.546875
101.198997	38.186001	1128.805054	-1.067500	4.480000	14.140000
74.359001	32.757000	1106.479004	-0.498750	6.960625	12.853750
71.613998	39.833000	1115.140991	3.696875	7.113750	9.633750
69.052002	65.209000	1104.039062	3.696875	3.832500	8.439375
65.758003	75.639999	1099.342041	4.891250	3.832500	8.439375
65.758003	75.639999	1102.941040	2.008125	2.515625	11.230625
68.869003	64.965004	1102.941040	0.765625	0.721875	12.127500
55.875999	65.148003	1115.323975	-1.531250	-1.526875	11.799375
77.165001	36.722000	1124.535034	-0.577500	-3.801875	12.827500
72.956001	62.220001	1121.911987	2.935625	-2.174375	10.998750
67.161003	61.000000	1120.570068	1.050000	-1.233750	13.711250
56.547001	33.611000	1116.421997	0.586250	-1.456875	19.709375
46.542999	55.937000	1131.671997	6.006875	2.677500	20.825001
85.460999	56.364002	1161.562012	5.775000	-6.120625	30.170000
104.005005	33.977001	1111.297974	6.706875	-9.966250	33.866875
58.316002	41.785000	1086.714966	7.783125	9.323125	20.457500
48.494999	58.804001	1115.690063	6.475000	11.690000	10.368750
85.705002	43.310001	1129.232056	2.559375	-1.321250	11.738125
83.204002	52.521000	1103.672974	0.848750	0.761250	13.247500
67.344002	48.434002	1109.773071	1.443750	7.030625	10.710000
39.833000	36.660999	1106.296021	0.411250	5.985000	11.366250
48.007000	50.507999	1111.847046	1.793750	-0.376250	7.100625
78.933998	57.401001	1105.380981	5.551875	-4.834375	5.250000
68.625000	91.317001	1084.823975	0.437500	-4.086250	4.991875
86.010002	55.632000	1071.404053	-3.810625	0.975625	2.235625
70.272003	40.748001	1107.333008	-1.645000	-1.701875	3.119375
91.927002	57.706001	1125.755005	-1.614375	-7.958125	-0.853125
80.703003	59.658001	1137.161987	-1.614375	-5.936875	-3.163125
58.011002	41.723999	1152.777954	-2.012500	-4.077500	-0.258125
67.527000	43.675999	1130.879028	-4.038125	-3.246250	0.196875
42.639000	53.862999	1124.291016	-2.384375	1.688750	-0.577500
47.885002	53.558002	1128.438965	1.518125	-1.623125	2.765000
70.333000	73.139000	1117.825073	3.679375	-2.305625	4.156250
58.987000	67.771004	1131.794067	3.298750	-2.782500	11.125625
79.605003	67.587997	1118.495972	4.952500	0.122500	11.388125
80.886002	59.353001	1134.599976	3.150000	3.552500	15.089375
81.129997	75.762001	1131.062012	3.793125	0.481250	23.025625
93.208000	75.152000	1122.704956	3.517500	-0.931875	25.720625
102.297005	78.140999	1124.229980	4.611250	-5.928125	32.300625
139.384995	86.315002	1120.692017	8.120000	-6.326250	35.161877
102.541000	54.411999	1105.807983	8.159375	7.135625	30.852501
83.692001	85.278000	1132.160034	11.305000	5.670000	31.753750
93.757004	107.420998	1104.282959	10.692500	-0.070000	32.090626
90.889999	84.607002	1107.211060	6.663125	2.891875	35.988750
76.372002	65.879997	1114.286987	7.402500	4.073125	34.247501
67.649002	52.948002	1113.372070	4.379375	3.115000	31.071251
71.065002	69.905998	1122.217041	2.288125	-0.210000	31.898125
81.984001	59.353001	1118.008057	2.603125	-1.623125	29.281876
84.057999	61.487999	1110.016968	3.167500	-4.283125	28.468124
86.132004	87.473999	1099.159058	6.011250	-5.385625	25.191250
100.405998	94.123001	1101.537964	5.521250	-1.417500	22.561874
101.382004	96.380005	1138.198975	1.522500	-0.542500	20.155624
90.219002	89.974998	1128.927002	-0.140000	2.113125	16.261875
99.247002	87.473999	1136.979004	-0.336875	2.226875	17.084375
75.579002	78.507004	1122.888062	-0.433125	4.392500	15.496250
63.257000	90.889999	1111.359009	0.647500	4.265625	14.008750
81.129997	90.036003	1113.250000	0.446250	-0.511875	13.256250
94.183998	93.878998	1097.390015	-1.614375	1.601250	10.889375
85.827003	84.729004	1101.477051	-2.489375	1.487500	7.700000
95.343002	81.984001	1105.747070	-2.887500	0.931875	2.100000
87.535004	82.959999	1109.285034	-3.933125	-0.581875	-0.481250
81.801003	99.917999	1129.536987	-2.401875	-2.358125	-1.526875
72.041000	82.472000	1135.759033	-1.509375	-2.961875	-0.319375
77.165001	84.667999	1138.321045	-1.325625	-3.163125	-0.341250
75.517998	86.132004	1142.468994	-0.555625	-1.176875	-3.189375
109.983002	89.243004	1140.333984	0.476875	-0.052500	-4.086250
107.604004	95.343002	1123.254028	-0.765625	4.195625	-7.533750
80.215004	81.618004	1105.686035	-3.469375	7.297500	-9.620625
76.615997	46.116001	1099.890991	-4.978750	6.212500	-8.513750
82.777000	20.434999	1128.865967	-5.096875	0.883750	-8.876875
76.189003	16.958000	1132.343018	-2.585625	-0.656250	-10.600625
61.487999	36.783001	1135.636963	4.935000	0.240625	-7.424375
81.191002	61.915001	1121.546021	6.400625	-0.310625	-2.765000
83.631004	40.748001	1108.614014	2.065000	2.043125	2.235625
91.927002	37.576000	1106.417969	2.568125	1.671250	2.870000
90.402000	43.737000	1102.391968	2.961875	1.054375	3.128125
80.946999	59.048000	1102.514038	3.115000	0.188125	4.471250
72.041000	80.093002	1102.758057	3.933125	0.065625	3.521875
85.888000	84.485001	1117.520020	1.531250	-2.100000	7.770000
82.472000	87.656998	1114.836060	0.328125	-1.601250	7.988750
76.189003	79.971001	1112.518066	-1.242500	-0.087500	6.479375
70.455002	79.422005	1106.113037	-1.859375	-1.198750	10.618125
52.338001	68.747002	1105.686035	-0.538125	-0.183750	10.438750
52.826000	18.910000	1125.755005	-1.190000	-3.167500	11.725000
77.775002	54.351002	1130.269043	0.634375	-6.951875	8.238125
65.819000	60.938999	1114.836060	-0.446250	-3.115000	4.690000
70.089005	63.135002	1141.066040	-0.949375	-4.698750	5.836250
96.868004	61.976002	1123.864014	-1.063125	-4.873750	5.648125
84.180000	69.967003	1118.435059	-1.408750	0.144375	5.499375
76.555000	67.099998	1107.942993	-1.588125	2.419375	3.180625
64.843002	49.166000	1108.125977	0.065625	0.949375	4.011875
79.788002	50.630001	1110.322021	3.071250	0.319375	-0.109375
62.952000	29.951000	1120.692017	2.826250	0.258125	0.266875
64.903999	38.125000	1119.105957	2.261875	-0.328125	0.525000
67.222000	30.805000	1128.438965	-1.290625	1.505000	-1.618750
54.716999	19.947001	1128.134033	-2.380000	0.249375	-1.439375
56.486000	43.371002	1117.214966	1.299375	0.616875	-5.188750
55.632000	32.269001	1127.218994	-0.358750	3.066875	-5.866875
69.052002	40.809002	1118.922974	2.878750	-1.570625	-9.970625
88.266998	61.549000	1103.734009	2.222500	-1.566250	-15.063125
73.931999	62.952000	1114.836060	-2.598750	-0.560000	-16.222500
62.525002	45.993999	1107.821045	-2.944375	-2.235625	-15.522500
71.187004	45.506001	1121.180054	-0.940625	-1.671250	-14.538125
72.101997	47.580002	1124.169067	-1.933750	-3.023125	-13.356875
88.328003	36.295002	1130.390991	-0.385000	-2.633750	-14.568750
96.196999	48.556000	1138.321045	0.831250	-1.071875	-16.861250
82.106003	42.395000	1121.667969	0.831250	-1.071875	-16.861250
82.106003	42.395000	1121.667969	1.211875	1.036875	-18.235001
54.229000	45.079002	1121.667969	0.621250	2.275000	-20.606251
71.858002	55.083000	1123.742065	1.750000	-3.233125	-23.983749
74.603004	64.355003	1122.400024	0.756875	-4.637500	-26.998125
98.027000	77.225998	1123.131958	-4.781875	-5.709375	-27.370001
93.330002	58.438000	1119.472046	-5.158125	-1.413125	-28.879375
70.210999	47.031002	1118.374023	-0.336875	3.653125	-27.768126
70.150002	71.431000	1117.764038	-0.446250	4.598125	-26.438126
40.504002	54.290001	1118.008057	-1.929375	4.340000	-24.876249
35.746002	48.007000	1117.031982	-0.621250	-0.507500	-25.051250
65.879997	49.288002	1118.618042	-2.931250	-6.370000	-23.773750
94.550003	52.033001	1126.364990	-2.712500	-5.652500	-25.729376
79.666000	45.079002	1109.102051	0.196875	-1.338750	-23.528749
65.879997	51.056999	1098.549072	3.473750	0.665000	-24.504375
62.341999	53.253002	1101.964966	2.178750	-0.096250	-24.386250
67.649002	58.865002	1109.773071	-0.953750	-4.169375	-22.736876
90.341003	57.827999	1120.936035	-1.500625	-4.554375	-24.692499
92.598000	56.852001	1125.145020	-1.246875	-4.506250	-24.184999
81.313004	70.028000	1119.411011	-1.596875	-2.038750	-24.395000
73.993004	72.346001	1127.463013	-0.105000	-2.996875	-23.279375
87.230003	73.931999	1122.888062	-0.402500	-1.321250	-21.743750
75.701004	64.111000	1113.799072	0.402500	0.783125	-20.623751
81.434998	54.716999	1106.967041	1.229375	-1.408750	-19.985001
76.311005	70.638000	1111.603027	-1.413125	-2.891875	-21.061251
92.232002	57.767002	1115.263062	-2.222500	-4.777500	-20.545000
97.661003	46.542999	1128.378052	-2.957500	-7.328125	-16.003750
117.791000	44.408001	1123.985962	0.743750	-5.473125	-14.367500
99.917999	56.973999	1129.292969	4.344375	-3.233125	-14.258125
117.486000	59.109001	1132.587036	1.981875	-3.171875	-11.917500
112.972000	51.667000	1117.520020	1.881250	-0.109375	-12.674375
86.803001	63.440002	1118.130005	3.320625	2.060625	-13.308750
114.436005	66.306999	1119.105957	4.961250	-1.295000	-10.548125
85.400002	95.770004	1110.870972	5.849375	1.019375	-9.572500
74.724998	85.827003	1130.146973	5.740000	-0.021875	-5.092500
92.475998	99.064003	1132.648071	5.407500	-1.194375	-1.058750
89.792000	114.802002	1135.026978	3.850000	-0.507500	0.271250
91.256004	86.193001	1128.072998	5.626250	0.700000	1.793750
81.679001	112.362000	1115.629028	6.212500	0.927500	3.010000
77.835999	110.531998	1108.431030	3.740625	1.894375	3.036250
72.041000	100.710999	1106.540039	3.163125	2.113125	1.281875
93.513000	110.348999	1114.409058	0.275625	-1.456875	0.896875
109.312004	108.823997	1118.312988	1.233750	-2.161250	0.844375
90.158005	100.223000	1115.812012	2.148125	1.133125	3.552500
98.149002	86.986000	1121.240967	0.892500	-1.500625	6.488125
104.981003	86.863998	1118.008057	2.961875	-0.896875	8.137500
98.149002	93.757004	1113.982056	3.386250	-0.140000	10.609375
102.906998	106.994003	1118.068970	3.981250	0.183750	11.370625
94.611000	106.994003	1123.925049	5.083750	2.664375	11.278750
92.475998	120.658005	1114.652954	4.318125	3.692500	10.924375
80.093002	129.869003	1114.225952	2.747500	3.915625	10.556875
88.999001	112.484001	1138.321045	3.508750	0.669375	15.343125
96.196999	113.947998	1119.349976	3.460625	0.166250	17.906876
73.383003	103.151001	1115.812012	1.876875	3.990000	16.450001
64.965004	96.196999	1120.875000	1.903125	1.303750	17.294374
98.209999	103.516998	1110.260986	1.058750	0.078750	14.306250
90.584999	84.912003	1109.712036	1.701875	1.785000	12.792500
102.846001	108.885002	1125.816040	2.975000	-0.568750	14.498750
104.554001	91.987999	1100.744995	3.145625	2.891875	12.792500
68.564003	88.450005	1106.967041	3.530625	4.978750	11.536875
78.263000	93.635002	1101.721069	1.785000	1.185625	11.151875
68.625000	95.403999	1092.937012	1.719375	2.905000	7.870625
57.889000	107.360001	1105.442017	0.748125	2.253125	5.267500
90.524002	96.319000	1124.901001	-0.805000	-5.490625	7.494375
102.968002	97.966003	1111.053955	0.415625	-2.944375	6.580000
78.018997	95.770004	1129.109985	0.616875	0.507500	7.061250
86.925003	97.234001	1132.221069	2.139375	-1.448125	7.634375
66.734001	112.362000	1111.359009	2.266250	3.438750	4.567500
68.442001	106.689003	1123.010010	-0.266875	3.465000	7.686875
76.555000	109.861000	1111.603027	1.281875	1.666875	8.846250
59.414001	101.931000	1112.518066	2.161250	1.723750	7.485625
83.509003	110.471001	1124.839966	1.067500	-0.861875	8.343125
86.925003	115.350998	1111.664062	0.091875	1.579375	9.874375
61.183002	102.236000	1119.655029	0.831250	4.943750	11.720625
72.590004	109.007004	1122.034058	3.718750	1.977500	12.075000
67.771004	130.356995	1107.027954	2.909375	3.018750	11.755625
68.807999	100.040001	1121.911987	3.517500	2.607500	14.520625
63.013000	105.957001	1119.716064	8.080625	0.008750	14.608125
49.043999	107.604004	1102.880005	5.320000	-0.328125	18.943750
23.363001	128.893005	1102.026001	3.871875	0.809375	22.216249
41.907001	135.237000	1106.844971	2.305625	-1.295000	22.548750
57.950001	127.917000	1119.716064	0.393750	-2.948750	25.458124
89.548004	126.636002	1141.005005	2.839375	-4.795000	22.728125
108.275002	129.137009	1135.393066	1.448125	-3.268125	23.502501
101.565002	115.167999	1145.519043	2.528750	1.141875	22.163750
96.501999	120.597000	1129.719971	3.548125	4.685625	17.836876
61.732002	116.022003	1098.609985	3.395000	4.913125	16.651251
76.006004	136.335007	1084.579956	1.312500	2.848125	16.852501
87.840004	105.774002	1102.941040	0.319375	0.691250	18.392500
82.716003	112.056999	1102.026001	2.388750	-0.402500	15.566250
102.541000	122.366005	1114.713989	0.245000	-1.338750	13.654375
103.090004	110.836998	1116.787964	-1.990625	-0.682500	14.227500
80.703003	95.891998	1105.259033	-1.526875	3.548125	10.097500
61.976002	85.827003	1116.421997	-1.080625	0.258125	10.486875
63.074001	92.292999	1103.001953	1.776250	-1.290625	8.964375
67.771004	81.313004	1127.828979	0.284375	-4.007500	8.955625
72.651001	84.485001	1121.973022	0.284375	-5.048750	5.604375
59.658001	99.430000	1122.156006	1.815625	-5.048750	5.604375
59.658001	99.430000	1112.213013	2.292500	-1.859375	0.748125
53.618999	94.672005	1112.213013	-0.367500	-1.837500	1.277500
76.432999	79.666000	1119.899048	-2.143750	-4.151875	-0.910000
96.563004	66.246002	1124.291016	-3.355625	-3.500000	-3.845625
82.106003	88.633003	1127.036011	-3.119375	-0.783125	-9.117500
74.847000	112.179001	1135.149048	-3.701250	-2.839375	-15.649375
76.615997	101.687004	1130.208008	-5.009375	-3.600625	-12.858125
74.419998	74.481003	1138.321045	-3.955000	-2.970625	-14.551250
63.379002	80.336998	1141.126953	-5.210625	-4.847500	-18.103750
95.526001	80.764000	1117.581055	-5.096875	-1.820000	-23.222500
80.276001	73.016998	1095.010986	-4.786250	5.263125	-25.598125
78.445999	72.590004	1092.144043	-5.228125	-1.828750	-21.481251
129.990997	57.340000	1090.802002	-7.752500	-10.154375	-18.121250
107.909004	34.465000	1071.648071	-5.075000	-2.069375	-21.021875
91.012001	68.869003	1095.255005	-1.141875	-1.697500	-23.966249
110.348999	68.930000	1112.395996	-0.118125	-5.390000	-19.166876
110.043999	86.375999	1108.004028	2.681875	-5.429375	-18.226250
139.690002	93.269005	1116.604980	1.951250	-8.185625	-21.188126
101.320999	115.595001	1115.079956	0.083125	-4.746875	-23.708124
101.382004	122.915001	1110.322021	0.126875	-3.640000	-23.646875
144.813995	111.081001	1117.337036	-0.739375	-4.243750	-20.575624
103.395004	92.964005	1105.869019	-2.305625	-2.756250	-18.528126
121.207001	90.646004	1129.292969	-0.315000	-7.061250	-19.215000
122.610001	95.098999	1110.443970	2.520000	-6.965000	-18.637501
106.627998	99.247002	1104.526978	3.723125	-6.151250	-14.809375
127.551003	117.303001	1124.656982	2.926875	-8.308125	-11.961250
115.350998	102.846001	1109.468018	2.458750	-5.075000	-10.031875
109.495003	106.811005	1118.557007	4.418750	-6.348125	-9.305625
128.283005	122.244003	1122.338989	5.578125	-4.703125	-9.454375
115.717003	134.199997	1117.398071	7.385000	-3.565625	-8.474375
131.638000	132.003998	1113.494019	7.389375	-1.238125	-7.993125
141.520004	132.736008	1127.645996	5.980625	-2.065000	-6.702500
152.500000	147.009995	1120.265015	4.200000	-2.493750	-4.326875
158.294998	136.578995	1127.341064	2.681875	-1.785000	0.175000
135.968994	137.128006	1114.896973	2.327500	2.016875	1.273125
124.257004	127.306999	1113.982056	0.336875	4.672500	4.948125
117.303001	113.459999	1118.312988	3.613750	3.613750	8.181250
119.194000	143.960007	1119.838013	5.757500	2.646875	8.312500
137.005997	153.903000	1138.321045	4.471250	3.110625	10.027500
152.134003	169.824005	1136.796021	4.011875	4.834375	12.153750
131.576996	144.630997	1140.151001	1.745625	8.776250	15.233750
136.091003	132.431000	1166.807983	4.068750	7.175000	17.780001
142.800995	167.445007	1146.556030	6.453125	8.505000	16.156876
115.107002	153.720001	1127.768066	4.961250	13.685000	16.423750
87.778999	152.988007	1109.833984	3.110625	16.156876	13.575625
72.101997	134.688004	1101.354980	1.325625	14.231875	7.542500
77.530998	121.756004	1089.276978	-0.809375	11.418750	1.452500
80.581001	141.093002	1119.349976	-1.588125	8.233750	-0.918750
96.136002	115.717003	1082.688965	-1.120000	7.485625	2.782500
74.724998	95.770004	1065.060059	-3.430000	10.320625	5.547500
52.887001	72.163002	1046.638062	-2.563750	8.841875	4.593750
56.547001	96.441002	1031.265991	-0.358750	2.432500	2.480625
33.367001	110.531998	1047.492065	0.310625	-1.570625	0.258125
52.277000	106.750000	1070.733032	0.188125	-7.630000	0.376250
63.440002	114.497002	1082.872070	-0.463750	-9.362500	1.793750
56.547001	115.778000	1104.405029	-1.058750	-7.249375	0.525000
62.037003	107.420998	1131.183960	-0.516250	-11.016250	0.507500
85.339005	128.527008	1140.151001	1.238125	-13.540625	0.323750
87.108002	127.612000	1120.692017	-1.286250	-6.330625	0.616875
73.749001	93.330002	1136.186035	-1.815625	-3.460625	-0.826875
90.279999	109.922005	1121.302002	-0.713125	-6.636875	-4.042500
105.529999	106.506004	1114.775024	-1.391250	-8.023750	-2.970625
104.554001	111.934998	1114.104004	-0.813750	-7.660625	-3.027500
